time,seconds_elapsed,z,y,x
1716403992923079400,0.268079345703125,0.12347412109375,-0.00872802734375,-0.07171630859375
1716403992933150200,0.278150146484375,0.1160125732421875,-0.0598602294921875,-0.0557403564453125
1716403992943221000,0.288220947265625,0.1160125732421875,-0.1045989990234375,-0.0152587890625
1716403992953291800,0.298291748046875,0.11175537109375,-0.1365509033203125,0.0241546630859375
1716403992963362600,0.308362548828125,0.07659912109375,-0.1983489990234375,0.030548095703125
1716403992973433300,0.318433349609375,-0.0959625244140625,-0.5679931640625,0.0081787109375
1716403992983504100,0.328504150390625,-0.2333831787109375,-0.3581390380859375,0.1157684326171875
1716403992993575000,0.338574951171875,-0.2259368896484375,-0.0236358642578125,0.2340087890625
1716403993003676200,0.34867626953125,-0.113006591796875,0.1212310791015625,0.3064422607421875
1716403993013747000,0.358746826171875,-0.0320587158203125,0.1127166748046875,0.3107147216796875
1716403993023848400,0.368848388671875,-0.002227783203125,0.0434722900390625,0.281951904296875
1716403993033919200,0.378919189453125,0.0137481689453125,0.0221710205078125,0.268096923828125
1716403993044020500,0.3890205078125,0.023345947265625,0.0104522705078125,0.2766265869140625
1716403993054121700,0.399121826171875,0.0297393798828125,-0.0108642578125,0.2883453369140625
1716403993064192500,0.409192626953125,0.0361175537109375,-0.0939483642578125,0.2957916259765625
1716403993074294000,0.4192939453125,0.0403900146484375,-0.2164459228515625,0.305389404296875
1716403993084395300,0.429395263671875,0.0318603515625,-0.2526702880859375,0.326690673828125
1716403993094496500,0.43949658203125,0.0063018798828125,-0.1749114990234375,0.3671722412109375
1716403993104598000,0.449597900390625,-0.0309906005859375,-0.0800933837890625,0.41937255859375
1716403993114699300,0.45969921875,-0.0618743896484375,-0.1056671142578125,0.464111328125
1716403993124800500,0.469800537109375,-0.0863800048828125,-0.28143310546875,0.4918060302734375
1716403993134901800,0.47990185546875,-0.101287841796875,-0.465728759765625,0.53228759765625
1716403993145033700,0.49003369140625,-0.11407470703125,-0.51898193359375,0.611114501953125
1716403993155135000,0.500135009765625,-0.1236724853515625,-0.3783721923828125,0.712310791015625
1716403993165236200,0.510236328125,-0.1428375244140625,-0.1610565185546875,0.7975311279296875
1716403993175337700,0.520337646484375,-0.1769256591796875,0.0551910400390625,0.8081817626953125
1716403993185469400,0.530469482421875,-0.181182861328125,0.0296173095703125,0.7751617431640625
1716403993195570700,0.54057080078125,-0.1545562744140625,-0.1621246337890625,0.73895263671875
1716403993205702700,0.55070263671875,-0.105560302734375,-0.282501220703125,0.72296142578125
1716403993215804000,0.560803955078125,-0.079986572265625,-0.3091278076171875,0.7101898193359375
1716403993225936000,0.570935791015625,-0.07891845703125,-0.2185821533203125,0.69952392578125
1716403993236037000,0.581037109375,-0.0927734375,-0.1152496337890625,0.677154541015625
1716403993246168800,0.5911689453125,-0.113006591796875,-0.12164306640625,0.6398773193359375
1716403993256270300,0.601270263671875,-0.124725341796875,-0.2718505859375,0.6079254150390625
1716403993266402000,0.611402099609375,-0.13751220703125,-0.3197784423828125,0.59088134765625
1716403993276503300,0.62150341796875,-0.1652069091796875,-0.190887451171875,0.57916259765625
1716403993286635300,0.63163525390625,-0.2248687744140625,0.0072479248046875,0.564239501953125
1716403993296767000,0.64176708984375,-0.2823944091796875,0.1414794921875,0.545074462890625
1716403993306868500,0.651868408203125,-0.3111572265625,0.16064453125,0.52056884765625
1716403993317000200,0.662000244140625,-0.3026275634765625,0.0903472900390625,0.487548828125
1716403993327132200,0.672132080078125,-0.2664031982421875,0.0093841552734375,0.4449310302734375
1716403993337233400,0.6822333984375,-0.2376556396484375,-0.06304931640625,0.383148193359375
1716403993347365000,0.692365234375,-0.218475341796875,-0.087554931640625,0.3064422607421875
1716403993357497000,0.7024970703125,-0.2056884765625,-0.097137451171875,0.2286834716796875
1716403993367598300,0.712598388671875,-0.1918487548828125,-0.1280364990234375,0.16583251953125
1716403993377730300,0.722730224609375,-0.169464111328125,-0.1301727294921875,0.133880615234375
1716403993387862000,0.732862060546875,-0.1353759765625,-0.088623046875,0.14239501953125
1716403993397994000,0.742993896484375,-0.10235595703125,-0.06732177734375,0.1743621826171875
1716403993408095200,0.75309521484375,-0.0778656005859375,-0.0470733642578125,0.2180328369140625
1716403993418227000,0.76322705078125,-0.068267822265625,-0.041748046875,0.2531890869140625
1716403993428359000,0.77335888671875,-0.0693359375,-0.0705108642578125,0.2531890869140625
1716403993438490600,0.78349072265625,-0.0693359375,-0.0918121337890625,0.211639404296875
1716403993448622600,0.79362255859375,-0.070404052734375,-0.1067352294921875,0.1392059326171875
1716403993458754300,0.80375439453125,-0.070404052734375,-0.112060546875,0.06463623046875
1716403993468855800,0.813855712890625,-0.0650787353515625,-0.108856201171875,0.015625
1716403993478987500,0.823987548828125,-0.0458984375,-0.0811614990234375,0.009246826171875
1716403993489119500,0.834119384765625,-0.0160675048828125,-0.006591796875,0.040130615234375
1716403993499251200,0.844251220703125,0.0169525146484375,0.06903076171875,0.0795440673828125
1716403993509383200,0.854383056640625,0.0435791015625,0.09246826171875,0.11895751953125
1716403993519515000,0.864514892578125,0.06488037109375,0.1009979248046875,0.1626434326171875
1716403993529646800,0.874646728515625,0.0819244384765625,0.1222991943359375,0.2169647216796875
1716403993539778600,0.884778564453125,0.08831787109375,0.126556396484375,0.27874755859375
1716403993549879800,0.8948798828125,0.0829925537109375,0.0594482421875,0.3160400390625
1716403993560011800,0.90501171875,0.06915283203125,-0.0598602294921875,0.305389404296875
1716403993570143500,0.9151435546875,0.042510986328125,-0.1834259033203125,0.2531890869140625
1716403993580275500,0.925275390625,0.0052337646484375,-0.2068634033203125,0.1945953369140625
1716403993590407200,0.9354072265625,-0.0405731201171875,-0.1397552490234375,0.1477203369140625
1716403993600539100,0.9455390625,-0.0842437744140625,-0.0460052490234375,0.117889404296875
1716403993610670800,0.9556708984375,-0.1098175048828125,0.0679779052734375,0.0912628173828125
1716403993620802800,0.965802734375,-0.113006591796875,0.1329498291015625,0.0806121826171875
1716403993630934500,0.9759345703125,-0.1087493896484375,0.1798248291015625,0.087005615234375
1716403993641066500,0.98606640625,-0.1002349853515625,0.2000732421875,0.0944671630859375
1716403993651198200,0.9961982421875,-0.0810546875,0.13934326171875,0.077423095703125
1716403993661299500,1.006299560546875,-0.0501556396484375,0.060516357421875,0.030548095703125
1716403993671431400,1.016431396484375,-0.021392822265625,-0.0257720947265625,-0.0269775390625
1716403993681563100,1.026563232421875,-0.002227783203125,-0.066253662109375,-0.0557403564453125
1716403993691695000,1.036695068359375,0.009490966796875,-0.006591796875,-0.039764404296875
1716403993701826800,1.046826904296875,0.0158843994140625,0.04986572265625,0.007110595703125
1716403993711958800,1.056958740234375,0.01055908203125,0.0796966552734375,0.0688934326171875
1716403993722090500,1.067090576171875,0.0084228515625,0.0860748291015625,0.1242828369140625
1716403993732222500,1.077222412109375,0.0158843994140625,0.0573272705078125,0.155181884765625
1716403993742354200,1.087354248046875,0.0286712646484375,0.015777587890625,0.1466522216796875
1716403993752486100,1.097486083984375,0.0478363037109375,-0.0236358642578125,0.1008453369140625
1716403993762617900,1.107617919921875,0.0723419189453125,-0.0481414794921875,0.0465240478515625
1716403993772749800,1.117749755859375,0.091522216796875,-0.044952392578125,0.009246826171875
1716403993782881500,1.127881591796875,0.0936431884765625,-0.03961181640625,-0.006744384765625
1716403993793013500,1.138013427734375,0.0819244384765625,-0.033233642578125,0.007110595703125
1716403993803114800,1.14811474609375,0.065948486328125,-0.0001983642578125,0.0433349609375
1716403993813246500,1.15824658203125,0.05316162109375,0.0178985595703125,0.07635498046875
1716403993823378400,1.16837841796875,0.04571533203125,-0.009796142578125,0.08807373046875
1716403993833510100,1.17851025390625,0.046783447265625,-0.065185546875,0.0944671630859375
1716403993843642000,1.18864208984375,0.04571533203125,-0.0609283447265625,0.117889404296875
1716403993853773800,1.19877392578125,0.0318603515625,-0.0108642578125,0.1477203369140625
1716403993863905800,1.20890576171875,0.0148162841796875,0.034942626953125,0.1839447021484375
1716403993874037500,1.21903759765625,-0.0054168701171875,0.058380126953125,0.221221923828125
1716403993884169500,1.22916943359375,-0.0203399658203125,0.0669097900390625,0.244659423828125
1716403993894301200,1.23930126953125,-0.0150146484375,0.04986572265625,0.2414703369140625
1716403993904433200,1.24943310546875,0.0041656494140625,0.0296173095703125,0.209503173828125
1716403993914564900,1.25956494140625,0.035064697265625,0.0338897705078125,0.1636962890625
1716403993924696800,1.26969677734375,0.068084716796875,0.0296173095703125,0.120025634765625
1716403993934828500,1.27982861328125,0.10003662109375,0.0573272705078125,0.0912628173828125
1716403993944960500,1.28996044921875,0.124542236328125,0.130828857421875,0.08380126953125
1716403993955092200,1.30009228515625,0.126678466796875,0.1713104248046875,0.084869384765625
1716403993965224200,1.31022412109375,0.1192169189453125,0.1574554443359375,0.0816802978515625
1716403993975356000,1.32035595703125,0.1213531494140625,0.1222991943359375,0.0784759521484375
1716403993985488000,1.33048779296875,0.1501007080078125,0.1414794921875,0.0859375
1716403993995619600,1.34061962890625,0.2193450927734375,0.2128448486328125,0.089141845703125
1716403994005751600,1.35075146484375,0.308837890625,0.2575836181640625,0.0688934326171875
1716403994015883300,1.36088330078125,0.3919219970703125,0.2916717529296875,0.016693115234375
1716403994026015200,1.37101513671875,0.4633026123046875,0.3087158203125,-0.070648193359375
1716403994036147000,1.38114697265625,0.5421295166015625,0.2831573486328125,-0.20062255859375
1716403994046279000,1.39127880859375,0.6635589599609375,0.26397705078125,-0.338043212890625
1716403994056410600,1.40141064453125,0.8126983642578125,0.35772705078125,-0.43603515625
1716403994066542600,1.41154248046875,0.9160308837890625,0.40032958984375,-0.4658660888671875
1716403994076674300,1.42167431640625,0.9256134033203125,0.391815185546875,-0.415802001953125
1716403994086806300,1.43180615234375,0.8009796142578125,0.33642578125,-0.2943572998046875
1716403994096938000,1.44193798828125,0.59326171875,0.23309326171875,-0.128173828125
1716403994107069700,1.452069580078125,0.38873291015625,0.128692626953125,0.0433349609375
1716403994117201700,1.46220166015625,0.24066162109375,0.0573272705078125,0.1700897216796875
1716403994127333400,1.47233349609375,0.1533050537109375,-0.0577239990234375,0.2180328369140625
1716403994137465300,1.48246533203125,0.098968505859375,-0.2441558837890625,0.157318115234375
1716403994147597000,1.49259716796875,0.0595550537109375,-0.44122314453125,0.018829345703125
1716403994157729000,1.50272900390625,0.02227783203125,-0.553070068359375,-0.1154022216796875
1716403994167860700,1.51286083984375,-0.0320587158203125,-0.5062103271484375,-0.1942291259765625
1716403994177992700,1.52299267578125,-0.11407470703125,-0.4348297119140625,-0.2272491455078125
1716403994188124400,1.53312451171875,-0.1748046875,-0.397552490234375,-0.26666259765625
1716403994198256400,1.54325634765625,-0.197174072265625,-0.38690185546875,-0.34442138671875
1716403994208388000,1.55338818359375,-0.2003631591796875,-0.395416259765625,-0.46160888671875
1716403994218520000,1.56352001953125,-0.2110137939453125,-0.44122314453125,-0.622467041015625
1716403994228651800,1.57365185546875,-0.2227325439453125,-0.4806365966796875,-0.7737274169921875
1716403994238783700,1.58378369140625,-0.21954345703125,-0.4486846923828125,-0.862152099609375
1716403994248915500,1.59391552734375,-0.2131500244140625,-0.431640625,-0.8802490234375
1716403994259047400,1.60404736328125,-0.2291259765625,-0.4241790771484375,-0.85150146484375
1716403994269179100,1.61417919921875,-0.2323150634765625,-0.397552490234375,-0.7854461669921875
1716403994279311000,1.62431103515625,-0.2174072265625,-0.41778564453125,-0.7044830322265625
1716403994289442800,1.63444287109375,-0.1992950439453125,-0.44122314453125,-0.629913330078125
1716403994299574800,1.64457470703125,-0.1758575439453125,-0.4369659423828125,-0.561737060546875
1716403994309706500,1.65470654296875,-0.1332550048828125,-0.418853759765625,-0.49249267578125
1716403994319838500,1.66483837890625,-0.0853118896484375,-0.3762359619140625,-0.439239501953125
1716403994329970200,1.67497021484375,-0.035247802734375,-0.3016815185546875,-0.3934326171875
1716403994340102100,1.68510205078125,0.044647216796875,-0.2739715576171875,-0.3763885498046875
1716403994350233900,1.69523388671875,0.103240966796875,-0.3560028076171875,-0.394500732421875
1716403994360365800,1.70536572265625,0.14691162109375,-0.4571990966796875,-0.4669342041015625
1716403994370497500,1.71549755859375,0.2204132080078125,-0.533905029296875,-0.63311767578125
1716403994380629500,1.72562939453125,0.3865966796875,-0.4454803466796875,-0.8291168212890625
1716403994390730800,1.735730712890625,0.59326171875,-0.4593353271484375,-0.8344573974609375
1716403994400862500,1.745862548828125,0.6593017578125,-1.14642333984375,-0.7055511474609375
1716403994410994400,1.755994384765625,0.5314788818359375,-2.7698974609375,-0.6011505126953125
1716403994421126100,1.766126220703125,0.444122314453125,-4.4700469970703125,-0.4232635498046875
1716403994431258000,1.776258056640625,0.78607177734375,-5.5576934814453125,-0.061065673828125
1716403994441389800,1.786389892578125,1.44866943359375,-5.7718048095703125,0.3639678955078125
1716403994451521800,1.796521728515625,2.0462799072265625,-5.332916259765625,0.6505279541015625
1716403994461653500,1.806653564453125,2.1038055419921875,-4.4732513427734375,0.7985992431640625
1716403994471785500,1.816785400390625,1.6233673095703125,-3.0724334716796875,0.9786376953125
1716403994481917200,1.826917236328125,1.0960693359375,-1.854827880859375,1.182098388671875
1716403994492049200,1.837049072265625,0.8276214599609375,-1.3584136962890625,1.1852874755859375
1716403994502180900,1.847180908203125,0.8041839599609375,-1.32965087890625,0.8657073974609375
1716403994512312800,1.857312744140625,1.1194915771484375,-1.59490966796875,0.258514404296875
1716403994522444500,1.867444580078125,1.4731597900390625,-1.7802581787109375,-0.2016754150390625
1716403994532576500,1.877576416015625,1.7139129638671875,-1.706756591796875,-0.4552154541015625
1716403994542708200,1.887708251953125,1.856658935546875,-1.6534881591796875,-0.7183380126953125
1716403994552840200,1.897840087890625,1.800201416015625,-1.70782470703125,-0.97613525390625
1716403994562972000,1.907971923828125,1.67449951171875,-1.7941131591796875,-1.2743988037109375
1716403994573103900,1.918103759765625,1.8864898681640625,-1.7056884765625,-1.7665557861328125
1716403994583235600,1.928235595703125,2.7898406982421875,-1.2124786376953125,-2.150054931640625
1716403994593367600,1.938367431640625,2.2337646484375,-0.9035491943359375,-1.63446044921875
1716403994603499300,1.948499267578125,0.9053802490234375,-1.5735931396484375,-1.041107177734375
1716403994613631000,1.958630859375,1.0065765380859375,-2.57281494140625,-0.3731842041015625
1716403994623763000,1.968762939453125,1.77783203125,-3.73822021484375,0.13067626953125
1716403994633894700,1.978894775390625,1.94720458984375,-4.886566162109375,0.2308197021484375
1716403994644026600,1.989026611328125,2.2071380615234375,-5.8857879638671875,0.4129791259765625
1716403994654158300,1.999158447265625,2.7418975830078125,-6.5718231201171875,0.8092498779296875
1716403994664290300,2.009290283203125,2.963470458984375,-6.8072509765625,0.836944580078125
1716403994674422000,2.019422119140625,2.8665313720703125,-6.68048095703125,0.3874053955078125
1716403994684554000,2.029553955078125,2.85906982421875,-6.040252685546875,-0.15374755859375
1716403994694685700,2.039685791015625,2.9911651611328125,-5.0644683837890625,-0.665069580078125
1716403994704817700,2.049817626953125,3.1456298828125,-4.0865631103515625,-0.961212158203125
1716403994714949400,2.059949462890625,3.31500244140625,-3.27056884765625,-0.9026336669921875
1716403994725081300,2.070081298828125,3.569610595703125,-2.792266845703125,-0.4754486083984375
1716403994735213000,2.080213134765625,3.93072509765625,-1.967742919921875,0.1402740478515625
1716403994745345000,2.090344970703125,4.4037017822265625,-0.8140716552734375,0.667572021484375
1716403994755476700,2.100476806640625,4.707305908203125,0.662384033203125,0.7517242431640625
1716403994765608700,2.110608642578125,4.6551055908203125,1.724456787109375,0.531219482421875
1716403994775740400,2.120740478515625,4.3600311279296875,1.899169921875,0.2744903564453125
1716403994785872400,2.130872314453125,4.0276641845703125,1.644561767578125,0.0390625
1716403994796004000,2.141004150390625,3.783721923828125,1.155609130859375,-0.07598876953125
1716403994806136000,2.151135986328125,3.6196746826171875,0.5654449462890625,0.087005615234375
1716403994816267800,2.161267822265625,3.48651123046875,0.048797607421875,0.4545135498046875
1716403994826399700,2.171399658203125,3.3895721435546875,-0.261199951171875,0.883819580078125
1716403994836531500,2.181531494140625,3.2212677001953125,-0.04388427734375,1.20660400390625
1716403994846663400,2.191663330078125,2.953887939453125,0.8307037353515625,1.21405029296875
1716403994856795100,2.201795166015625,2.6747894287109375,2.04510498046875,0.9104461669921875
1716403994866927000,2.211927001953125,2.3647918701171875,3.3276824951171875,0.464111328125
1716403994877058800,2.222058837890625,1.9205780029296875,3.959381103515625,0.1253509521484375
1716403994887190800,2.232190673828125,1.3570556640625,3.8624420166015625,-0.104736328125
1716403994897322500,2.242322509765625,0.831878662109375,3.552459716796875,-0.322052001953125
1716403994907454500,2.252454345703125,0.338653564453125,3.174285888671875,-0.40301513671875
1716403994917586200,2.262586181640625,-0.07891845703125,2.657623291015625,-0.4072723388671875
1716403994927718000,2.2727177734375,-0.2877197265625,2.133514404296875,-0.4456329345703125
1716403994937849900,2.282849853515625,-0.388916015625,1.769195556640625,-0.49462890625
1716403994947981600,2.292981689453125,-0.340972900390625,1.8672027587890625,-0.686370849609375
1716403994958113500,2.303113525390625,-0.5369873046875,2.3689422607421875,-0.90582275390625
1716403994968245200,2.313245361328125,-0.8288726806640625,2.749237060546875,-0.8759918212890625
1716403994978377200,2.323377197265625,-1.1239471435546875,3.195587158203125,-0.961212158203125
1716403994988509000,2.333509033203125,-1.3732147216796875,3.8390045166015625,-1.189178466796875
1716403994998641000,2.343640869140625,-1.5937347412109375,4.494140625,-1.523681640625
1716403995008772600,2.353772705078125,-1.699188232421875,4.713592529296875,-1.7346038818359375
1716403995018904600,2.363904541015625,-1.6693572998046875,4.4099884033203125,-1.67919921875
1716403995029036300,2.374036376953125,-1.6608428955078125,4.0360870361328125,-1.4565582275390625
1716403995039168300,2.384168212890625,-1.7055816650390625,3.6366119384765625,-1.200897216796875
1716403995049300000,2.394300048828125,-1.7737579345703125,3.2626953125,-1.019805908203125
1716403995059432000,2.404431884765625,-1.8312835693359375,3.117828369140625,-0.9430999755859375
1716403995069563600,2.414563720703125,-1.861114501953125,3.183868408203125,-0.883453369140625
1716403995079695600,2.424695556640625,-1.835540771484375,3.2264862060546875,-0.7183380126953125
1716403995089827300,2.434827392578125,-1.8078460693359375,3.29998779296875,-0.427520751953125
1716403995099959300,2.444959228515625,-1.748199462890625,3.4224853515625,-0.0930328369140625
1716403995110091000,2.455091064453125,-1.621429443359375,3.49493408203125,0.1700897216796875
1716403995120223000,2.465222900390625,-1.4222259521484375,3.4885406494140625,0.358642578125
1716403995130354700,2.475354736328125,-1.257110595703125,3.437408447265625,0.4662322998046875
1716403995140456000,2.4854560546875,-1.1644287109375,3.1902618408203125,0.5237579345703125
1716403995150588000,2.495587890625,-1.1037139892578125,2.8419189453125,0.5503997802734375
1716403995160719600,2.5057197265625,-1.0334014892578125,2.5052947998046875,0.545074462890625
1716403995170851600,2.5158515625,-0.922607421875,2.1484375,0.4832763671875
1716403995180983300,2.5259833984375,-0.796905517578125,1.8203277587890625,0.3628997802734375
1716403995191115300,2.536115234375,-0.68292236328125,1.56787109375,0.2510528564453125
1716403995201247000,2.5462470703125,-0.5870513916015625,1.3260498046875,0.1754150390625
1716403995211379000,2.55637890625,-0.5082244873046875,1.0554656982421875,0.14239501953125
1716403995221510700,2.5665107421875,-0.444305419921875,0.7252349853515625,0.14453125
1716403995231642600,2.576642578125,-0.3580169677734375,0.3311004638671875,0.1328125
1716403995241774300,2.5867744140625,-0.2365875244140625,-0.153594970703125,0.0699615478515625
1716403995251906300,2.59690625,-0.10662841796875,-0.717132568359375,0.0113677978515625
1716403995262038000,2.6070380859375,0.0318603515625,-1.4862518310546875,-0.0035400390625
1716403995272170000,2.617169921875,0.2012481689453125,-2.460968017578125,0.01776123046875
1716403995282301700,2.6273017578125,0.4451904296875,-3.3888092041015625,0.0827484130859375
1716403995292433700,2.63743359375,0.7445220947265625,-4.1866912841796875,0.1328125
1716403995302565400,2.6475654296875,1.061981201171875,-4.98883056640625,0.1636962890625
1716403995312697300,2.657697265625,1.411376953125,-5.8847198486328125,0.265960693359375
1716403995322829000,2.6678291015625,1.7288360595703125,-7.1044464111328125,0.5131072998046875
1716403995332961000,2.6779609375,2.0825042724609375,-8.348678588867188,0.8348236083984375
1716403995343092700,2.6880927734375,2.4755859375,-9.216873168945312,1.1075286865234375
1716403995353224700,2.698224609375,2.92938232421875,-9.405426025390625,1.2342987060546875
1716403995363356400,2.7083564453125,3.2521514892578125,-8.755615234375,1.2002105712890625
1716403995373488400,2.71848828125,3.7794647216796875,-8.2293701171875,1.429229736328125
1716403995383620000,2.7286201171875,4.1629638671875,-7.03094482421875,1.3589324951171875
1716403995393752000,2.738751953125,3.62286376953125,-4.9632720947265625,0.9690399169921875
1716403995403883800,2.7488837890625,3.2042236328125,-3.088409423828125,1.100067138671875
1716403995414015700,2.759015625,3.19036865234375,-1.7365875244140625,1.248138427734375
1716403995424147500,2.7691474609375,2.9687957763671875,-0.8247222900390625,1.4068603515625
1716403995434279200,2.779279052734375,2.7557373046875,-0.005523681640625,1.3706512451171875
1716403995444411100,2.7894111328125,2.6172637939453125,0.7646484375,1.224700927734375
1716403995454542800,2.79954296875,2.3743743896484375,0.857330322265625,1.1863555908203125
1716403995464674800,2.8096748046875,1.833221435546875,-0.0832977294921875,1.3994140625
1716403995474806500,2.819806640625,1.08221435546875,-1.7131500244140625,1.8116607666015625
1716403995484938500,2.8299384765625,0.5091094970703125,-2.8423309326171875,1.84149169921875
1716403995495070200,2.8400703125,0.2193450927734375,-3.5741729736328125,1.5602569580078125
1716403995505202200,2.8502021484375,0.226806640625,-3.79254150390625,1.182098388671875
1716403995515334000,2.860333984375,0.29498291015625,-3.3739013671875,0.965850830078125
1716403995525465900,2.8704658203125,0.39617919921875,-2.6026458740234375,0.80499267578125
1716403995535597600,2.88059765625,0.61456298828125,-2.0796051025390625,0.1008453369140625
1716403995545729500,2.8907294921875,0.5836639404296875,-1.1453704833984375,-0.3423004150390625
1716403995555861200,2.900861328125,0.3897857666015625,-0.1983489990234375,-0.326324462890625
1716403995565993200,2.9109931640625,-0.0437774658203125,-0.407135009765625,-0.2144622802734375
1716403995576125000,2.921125,-0.3154144287109375,-0.7458953857421875,-0.1686553955078125
1716403995586257000,2.9312568359375,-0.3857269287109375,-0.1163177490234375,-0.209136962890625
1716403995596388600,2.941388671875,-0.458160400390625,0.7412261962890625,0.5930023193359375
1716403995606520600,2.9515205078125,-0.608367919921875,-0.5861053466796875,0.4353485107421875
1716403995616652300,2.96165234375,-0.54656982421875,-1.1954345703125,0.040130615234375
1716403995626784300,2.9717841796875,-0.1790618896484375,-1.43511962890625,-0.0908966064453125
1716403995636916000,2.981916015625,-0.0437774658203125,-1.741912841796875,0.2169647216796875
1716403995647048000,2.9920478515625,0.11175537109375,-1.9773406982421875,0.540802001953125
1716403995657179600,3.0021796875,0.23638916015625,-2.0316619873046875,0.773040771484375
1716403995667311600,3.0123115234375,0.3450469970703125,-2.026336669921875,0.8539886474609375
1716403995677443300,3.022443359375,0.37274169921875,-2.059356689453125,0.829498291015625
1716403995687575300,3.0325751953125,0.2640838623046875,-2.00396728515625,0.8220367431640625
1716403995697707000,3.04270703125,0.1511688232421875,-1.9890594482421875,0.8220367431640625
1716403995707839000,3.0528388671875,0.1873931884765625,-2.1914520263671875,0.8880767822265625
1716403995717970700,3.062970703125,0.434539794921875,-2.5334014892578125,1.022308349609375
1716403995728102700,3.0731025390625,0.8393402099609375,-2.747528076171875,1.0500030517578125
1716403995738234400,3.083234375,1.29632568359375,-2.987213134765625,0.8124542236328125
1716403995748366000,3.093365966796875,1.7235107421875,-3.3227691650390625,0.496063232421875
1716403995758498000,3.103498046875,2.0121917724609375,-3.4090576171875,0.268096923828125
1716403995768629800,3.113629638671875,2.21990966796875,-3.2726898193359375,-0.0504150390625
1716403995778761700,3.12376171875,2.3317718505859375,-3.0031890869140625,-0.47332763671875
1716403995788893400,3.1338935546875,2.2401580810546875,-2.712371826171875,-0.8781280517578125
1716403995799025400,3.144025390625,2.1400146484375,-2.6165008544921875,-1.2637481689453125
1716403995809157000,3.1541572265625,2.0207061767578125,-2.959503173828125,-1.3702850341796875
1716403995819289000,3.1642890625,1.5786285400390625,-2.9669647216796875,-1.179595947265625
1716403995829420800,3.1744208984375,0.8372039794921875,-0.931243896484375,-0.813140869140625
1716403995839552800,3.184552734375,0.2332000732421875,0.45892333984375,-0.7716064453125
1716403995849684500,3.1946845703125,0.03399658203125,0.8094024658203125,-0.6288604736328125
1716403995859816400,3.20481640625,0.1501007080078125,0.6730499267578125,-0.66400146484375
1716403995869948200,3.2149482421875,0.298187255859375,0.5995330810546875,-1.0581512451171875
1716403995880080100,3.225080078125,0.3482513427734375,0.32470703125,-1.5609588623046875
1716403995890181400,3.235181396484375,0.48779296875,0.333221435546875,-1.394775390625
1716403995900313300,3.245313232421875,0.819091796875,0.619781494140625,-0.8312530517578125
1716403995910445000,3.255445068359375,0.9256134033203125,1.0224456787109375,-0.653350830078125
1716403995920577000,3.265576904296875,0.9980621337890625,1.4592132568359375,-0.3433685302734375
1716403995930708700,3.275708740234375,0.8712921142578125,1.632843017578125,0.0390625
1716403995940840400,3.28584033203125,0.760498046875,1.8118133544921875,0.11895751953125
1716403995950972400,3.295972412109375,0.6869964599609375,1.095947265625,0.1264190673828125
1716403995961104100,3.306104248046875,0.4718170166015625,0.0573272705078125,0.440673828125
1716403995971236000,3.316236083984375,0.4633026123046875,0.0946044921875,0.6824798583984375
1716403995981367800,3.326367919921875,0.397247314453125,1.22271728515625,0.5610504150390625
1716403995991499800,3.336499755859375,0.2310638427734375,2.568145751953125,-0.13031005859375
1716403996001631500,3.346631591796875,0.4398651123046875,2.56707763671875,-0.5841064453125
1716403996011763500,3.356763427734375,0.9724884033203125,2.5543060302734375,-0.7076873779296875
1716403996021895200,3.366895263671875,1.7032623291015625,3.1199493408203125,-0.5361785888671875
1716403996032027100,3.377027099609375,2.1240386962890625,4.5921478271484375,-0.20806884765625
1716403996042158800,3.387158935546875,2.003662109375,3.9870758056640625,0.597259521484375
1716403996052290800,3.397290771484375,1.6681060791015625,2.58306884765625,1.3003387451171875
1716403996062422500,3.407422607421875,1.30804443359375,1.404876708984375,1.203399658203125
1716403996072554500,3.417554443359375,1.015106201171875,0.8274993896484375,0.9381561279296875
1716403996082686200,3.427686279296875,0.86810302734375,0.3513336181640625,0.540802001953125
1716403996092818200,3.437818115234375,0.9298858642578125,-0.089691162109375,0.41937255859375
1716403996102950000,3.447949951171875,0.9288177490234375,-0.4934234619140625,0.449188232421875
1716403996113081900,3.458081787109375,0.68487548828125,-0.352813720703125,0.2414703369140625
1716403996123213600,3.468213623046875,0.1543731689453125,0.8754425048828125,-0.3966217041015625
1716403996133345500,3.478345458984375,0.274749755859375,0.871185302734375,-0.3465576171875
1716403996143477200,3.488477294921875,1.0055084228515625,0.401397705078125,-0.104736328125
1716403996153609200,3.498609130859375,1.320831298828125,1.03948974609375,-0.1154022216796875
1716403996163741000,3.508740966796875,1.02789306640625,1.55401611328125,-0.117523193359375
1716403996173873000,3.518872802734375,0.935211181640625,1.47412109375,0.065704345703125
1716403996184004600,3.529004638671875,1.219635009765625,1.202484130859375,0.312835693359375
1716403996194136600,3.539136474609375,1.4326934814453125,1.4549407958984375,0.2574462890625
1716403996204268300,3.549268310546875,1.3954010009765625,1.7564239501953125,0.1871337890625
1716403996214400300,3.559400146484375,1.3176422119140625,1.6392364501953125,0.31390380859375
1716403996224532000,3.569531982421875,1.264373779296875,1.6051483154296875,0.4683685302734375
1716403996234664000,3.579663818359375,1.25372314453125,1.5849151611328125,0.5344085693359375
1716403996244795600,3.589795654296875,1.297393798828125,1.260009765625,0.5141754150390625
1716403996254927400,3.59992724609375,1.3623809814453125,1.097015380859375,0.3661041259765625
1716403996265059300,3.610059326171875,1.4209747314453125,1.336700439453125,0.211639404296875
1716403996275191000,3.62019091796875,1.459320068359375,1.8086090087890625,0.5248260498046875
1716403996285323000,3.630322998046875,1.74267578125,2.35296630859375,0.5503997802734375
1716403996295454700,3.640454833984375,2.2145843505859375,3.1902618408203125,0.463043212890625
1716403996305586700,3.650586669921875,2.666259765625,3.8198394775390625,0.3543853759765625
1716403996315718400,3.660718505859375,2.9687957763671875,3.5631103515625,0.291534423828125
1716403996325850400,3.670850341796875,3.0870361328125,2.9122314453125,0.3298797607421875
1716403996335982000,3.680982177734375,3.2074127197265625,2.100494384765625,0.33734130859375
1716403996346114000,3.691114013671875,3.4460296630859375,1.519927978515625,0.1328125
1716403996356245800,3.701245849609375,3.4716033935546875,0.5920867919921875,-0.0386962890625
1716403996366377700,3.711377685546875,3.1413726806640625,-0.3581390380859375,-0.150543212890625
1716403996376509400,3.721509521484375,2.6492156982421875,-0.79595947265625,-0.4232635498046875
1716403996386641400,3.731641357421875,2.2838287353515625,-0.987701416015625,-0.8333892822265625
1716403996396773000,3.741773193359375,1.9418792724609375,-1.320068359375,-1.1337890625
1716403996406905000,3.751905029296875,1.675567626953125,-1.390380859375,-1.11993408203125
1716403996417036800,3.762036865234375,1.468902587890625,-1.184783935546875,-1.0688018798828125
1716403996427168800,3.772168701171875,1.2579803466796875,-0.8822479248046875,-0.9921112060546875
1716403996437300500,3.782300537109375,1.0257568359375,-0.62445068359375,-0.8802490234375
1716403996447432400,3.792432373046875,0.72747802734375,-0.4582672119140625,-0.7641448974609375
1716403996457564200,3.802564208984375,0.4047088623046875,-0.23455810546875,-0.6043548583984375
1716403996467696000,3.812696044921875,0.10430908203125,0.060516357421875,-0.41473388671875
1716403996477827800,3.822827880859375,-0.1343231201171875,0.3502655029296875,-0.232574462890625
1716403996487959800,3.832959716796875,-0.3036956787109375,0.457855224609375,-0.1271209716796875
1716403996498091500,3.843091552734375,-0.4293975830078125,0.3737030029296875,-0.0685272216796875
1716403996508223500,3.853223388671875,-0.5305938720703125,0.24053955078125,0.0198974609375
1716403996518355200,3.863355224609375,-0.58172607421875,0.083953857421875,0.0550384521484375
1716403996528487200,3.873487060546875,-0.538055419921875,-0.110992431640625,0.030548095703125
1716403996538619000,3.883618896484375,-0.4198150634765625,-0.2750396728515625,-0.0333709716796875
1716403996548750800,3.893750732421875,-0.2706756591796875,-0.2888946533203125,-0.131378173828125
1716403996558882600,3.903882568359375,-0.1545562744140625,-0.1962127685546875,-0.197418212890625
1716403996569014300,3.91401416015625,-0.068267822265625,-0.0822296142578125,-0.1942291259765625
1716403996579146200,3.924146240234375,0.035064697265625,-0.066253662109375,-0.143096923828125
1716403996589278000,3.93427783203125,0.0627593994140625,0.0647735595703125,-0.0972900390625
1716403996599410000,3.944409912109375,0.009490966796875,0.2266998291015625,-0.049346923828125
1716403996609541600,3.954541748046875,-0.04803466796875,0.391815185546875,-0.0546722412109375
1716403996619673600,3.964673583984375,-0.0778656005859375,0.4781036376953125,-0.1090087890625
1716403996629805300,3.974805419921875,-0.0512237548828125,0.4173736572265625,-0.105804443359375
1716403996639937300,3.984937255859375,-0.025665283203125,0.309783935546875,-0.0674591064453125
1716403996650069000,3.995069091796875,0.0030975341796875,0.49407958984375,-0.061065673828125
1716403996660201000,4.005200927734375,0.08831787109375,1.1161956787109375,-0.041900634765625
1716403996670302200,4.01530224609375,0.3706207275390625,1.5689239501953125,0.077423095703125
1716403996680434200,4.02543408203125,0.8467864990234375,1.3771820068359375,0.2723541259765625
1716403996690566000,4.03556591796875,1.3368072509765625,0.6027374267578125,0.50885009765625
1716403996700697900,4.04569775390625,1.68621826171875,-0.1024627685546875,0.7304229736328125
1716403996710829600,4.05582958984375,1.8843536376953125,-0.2484130859375,0.8902130126953125
1716403996720961500,4.06596142578125,1.9333648681640625,-0.0129852294921875,0.9839630126953125
1716403996731093200,4.07609326171875,1.882232666015625,0.114837646484375,0.9370880126953125
1716403996741225200,4.08622509765625,1.7171173095703125,0.196868896484375,0.8774261474609375
1716403996751357000,4.09635693359375,1.5658416748046875,0.7518768310546875,0.9828948974609375
1716403996761488600,4.106488525390625,1.150390625,0.07330322265625,0.4939422607421875
1716403996771620600,4.11662060546875,0.59326171875,-0.0726470947265625,-0.1601409912109375
1716403996781752300,4.12675244140625,0.331207275390625,0.7295074462890625,-0.324188232421875
1716403996791884300,4.13688427734375,-0.0640106201171875,0.9169921875,-0.56280517578125
1716403996802016000,4.14701611328125,-0.412353515625,0.9691925048828125,-0.7502899169921875
1716403996812148000,4.15714794921875,-0.561492919921875,0.951080322265625,-0.8536224365234375
1716403996822279700,4.16727978515625,-0.733001708984375,0.9052734375,-0.84722900390625
1716403996832411600,4.17741162109375,-0.8182220458984375,0.8211212158203125,-0.826995849609375
1716403996842543400,4.18754345703125,-0.756439208984375,0.5015411376953125,-0.8429718017578125
1716403996852675300,4.19767529296875,-0.6317901611328125,0.0796966552734375,-0.802490234375
1716403996862807000,4.20780712890625,-0.61688232421875,-0.0268402099609375,-0.6192626953125
1716403996872939000,4.21793896484375,-0.7937164306640625,0.11590576171875,-0.3657379150390625
1716403996883070700,4.22807080078125,-1.2155609130859375,0.25653076171875,-0.209136962890625
1716403996893202700,4.23820263671875,-1.564971923828125,0.40460205078125,-0.15374755859375
1716403996903334400,4.24833447265625,-1.7396697998046875,0.5111236572265625,-0.1228485107421875
1716403996913466400,4.25846630859375,-1.828094482421875,0.3513336181640625,-0.107940673828125
1716403996923598000,4.26859814453125,-1.8983917236328125,0.17449951171875,-0.0898284912109375
1716403996933730000,4.27872998046875,-1.8621826171875,0.0519866943359375,-0.1569366455078125
1716403996943861800,4.28886181640625,-1.8067779541015625,-0.1269683837890625,-0.406219482421875
1716403996953993700,4.29899365234375,-1.714111328125,-0.3581390380859375,-0.755615234375
1716403996964125400,4.30912548828125,-1.5489959716796875,-0.610595703125,-1.1060943603515625
1716403996974257400,4.31925732421875,-1.3316802978515625,-0.909942626953125,-1.4139556884765625
1716403996984389000,4.32938916015625,-1.5127716064453125,-0.724578857421875,-1.5034332275390625
1716403996994521000,4.33952099609375,-1.6619110107421875,0.5207061767578125,-1.1188812255859375
1716403997004652800,4.34965283203125,-1.7492523193359375,0.446136474609375,-0.99530029296875
1716403997014784800,4.35978466796875,-2.0933380126953125,0.107391357421875,-0.9899749755859375
1716403997024916500,4.36991650390625,-2.611053466796875,-0.51898193359375,-1.11993408203125
1716403997035048400,4.38004833984375,-3.104278564453125,-1.6162109375,-1.4704132080078125
1716403997045180200,4.39018017578125,-3.4739227294921875,-2.369354248046875,-1.5854644775390625
1716403997055312100,4.40031201171875,-3.6156005859375,-2.6015777587890625,-1.4927825927734375
1716403997065443800,4.41044384765625,-3.5303802490234375,-2.30224609375,-1.292510986328125
1716403997075575600,4.420575439453125,-3.306671142578125,-2.0135498046875,-1.1721343994140625
1716403997085707500,4.43070751953125,-3.02545166015625,-2.017822265625,-1.0965118408203125
1716403997095839200,4.440839111328125,-2.8795013427734375,-2.1584320068359375,-1.0389862060546875
1716403997105971200,4.45097119140625,-3.0041351318359375,-2.040191650390625,-0.8546905517578125
1716403997116103000,4.46110302734375,-3.0659332275390625,-1.981597900390625,-0.6586761474609375
1716403997126235000,4.47123486328125,-3.0201263427734375,-2.367218017578125,-0.60968017578125
1716403997136366600,4.48136669921875,-3.0265045166015625,-2.9115753173828125,-0.5574798583984375
1716403997146498600,4.49149853515625,-3.0616607666015625,-3.3557891845703125,-0.4807891845703125
1716403997156630300,4.50163037109375,-3.057403564453125,-3.43035888671875,-0.378509521484375
1716403997166762200,4.51176220703125,-2.998809814453125,-3.222625732421875,-0.33697509765625
1716403997176894000,4.52189404296875,-2.8795013427734375,-2.9957275390625,-0.3668060302734375
1716403997187026000,4.53202587890625,-2.7410125732421875,-2.8125,-0.4445648193359375
1716403997197157600,4.54215771484375,-2.51092529296875,-2.5216827392578125,-0.52978515625
1716403997207289600,4.55228955078125,-2.2094573974609375,-2.2010345458984375,-0.6245880126953125
1716403997217421300,4.56242138671875,-1.894134521484375,-1.8622894287109375,-0.72259521484375
1716403997227553300,4.57255322265625,-1.5926666259765625,-1.6013031005859375,-0.7833099365234375
1716403997237685000,4.58268505859375,-1.313568115234375,-1.476654052734375,-0.782257080078125
1716403997247817000,4.59281689453125,-1.0760040283203125,-1.356292724609375,-0.7162017822265625
1716403997257948700,4.60294873046875,-0.8863983154296875,-1.1134033203125,-0.6075439453125
1716403997268080600,4.61308056640625,-0.76708984375,-0.8641357421875,-0.4807891845703125
1716403997278212400,4.62321240234375,-0.7574920654296875,-0.76080322265625,-0.3657379150390625
1716403997288344300,4.63334423828125,-0.7830657958984375,-0.7331085205078125,-0.23577880859375
1716403997298476000,4.64347607421875,-0.79052734375,-0.7554779052734375,-0.0919647216796875
1716403997308608000,4.65360791015625,-0.7585601806640625,-0.7863616943359375,0.009246826171875
1716403997318739700,4.66373974609375,-0.707427978515625,-0.7565460205078125,0.0241546630859375
1716403997328871700,4.67387158203125,-0.6328582763671875,-0.613800048828125,-0.0227203369140625
1716403997339003400,4.68400341796875,-0.5604248046875,-0.4465484619140625,-0.0248565673828125
1716403997349135400,4.69413525390625,-0.5657501220703125,-0.5157928466796875,0.1285552978515625
1716403997359267000,4.70426708984375,-0.6104888916015625,-0.5924835205078125,0.3661041259765625
1716403997369399000,4.71439892578125,-0.559356689453125,-0.352813720703125,0.6185760498046875
1716403997379530800,4.72453076171875,-0.30902099609375,0.08074951171875,0.7740936279296875
1716403997389662500,4.734662353515625,0.032928466796875,0.4440155029296875,0.9029998779296875
1716403997399794400,4.74479443359375,0.3216094970703125,0.7167205810546875,1.111785888671875
1716403997409926100,4.754926025390625,0.4920501708984375,0.86053466796875,1.3333587646484375
1716403997420058000,4.76505810546875,0.5985870361328125,0.8307037353515625,1.3908843994140625
1716403997430189800,4.77518994140625,0.6422576904296875,0.674102783203125,1.2907562255859375
1716403997440291300,4.785291259765625,0.6220245361328125,0.468505859375,1.133087158203125
1716403997450423000,4.795423095703125,0.59112548828125,0.3278961181640625,1.0989990234375
1716403997460555000,4.805554931640625,0.5517120361328125,0.2820892333984375,1.021240234375
1716403997470686700,4.815686767578125,0.465423583984375,0.2139129638671875,0.4577178955078125
1716403997480818700,4.825818603515625,0.270477294921875,0.3534698486328125,-0.121795654296875
1716403997490950400,4.835950439453125,-0.093841552734375,0.8424224853515625,0.2393341064453125
1716403997501082400,4.846082275390625,-0.54656982421875,0.617645263671875,0.8614501953125
1716403997511214000,4.856214111328125,-0.87786865234375,-0.267578125,0.8582611083984375
1716403997521346000,4.866345947265625,-0.934326171875,-0.6169891357421875,0.496063232421875
1716403997531477800,4.876477783203125,-0.9396514892578125,-0.4039459228515625,0.573822021484375
1716403997541609700,4.886609619140625,-0.9630889892578125,-0.360260009765625,0.681427001953125
1716403997551741400,4.896741455078125,-0.90130615234375,-0.349609375,0.657989501953125
1716403997561873400,4.906873291015625,-0.84698486328125,-0.3421478271484375,0.71551513671875
1716403997572005000,4.917005126953125,-0.801177978515625,-0.4742431640625,0.7442779541015625
1716403997582136800,4.92713671875,-0.72021484375,-0.5019378662109375,0.702728271484375
1716403997592268800,4.937268798828125,-0.629669189453125,-0.188751220703125,0.681427001953125
1716403997602400500,4.947400390625,-0.5550994873046875,0.29913330078125,0.665435791015625
1716403997612532500,4.957532470703125,-0.5518951416015625,0.4653167724609375,0.71124267578125
1716403997622664200,4.967664306640625,-0.67547607421875,-0.005523681640625,0.8113861083984375
1716403997632796200,4.977796142578125,-0.7596282958984375,-0.6755828857421875,0.987152099609375
1716403997642927900,4.987927978515625,-0.7340545654296875,-1.26361083984375,1.1895599365234375
1716403997653059800,4.998059814453125,-0.7351226806640625,-1.6279296875,1.365325927734375
1716403997663191600,5.008191650390625,-0.7915802001953125,-1.5863800048828125,1.511260986328125
1716403997673323500,5.018323486328125,-0.7234039306640625,-1.03564453125,1.6646575927734375
1716403997683455200,5.028455322265625,-0.6136932373046875,-0.204742431640625,1.8319091796875
1716403997693587200,5.038587158203125,-0.3601531982421875,0.9574737548828125,1.9831695556640625
1716403997703719000,5.048718994140625,0.167144775390625,2.2123565673828125,2.093963623046875
1716403997713851000,5.058850830078125,0.9735565185546875,2.788665771484375,1.943756103515625
1716403997723982600,5.068982666015625,1.8886260986328125,2.3369903564453125,1.3994140625
1716403997734114600,5.079114501953125,2.7312469482421875,2.182525634765625,0.850799560546875
1716403997744246300,5.089246337890625,3.4257965087890625,2.408355712890625,0.5344085693359375
1716403997754378200,5.099378173828125,3.931793212890625,2.73114013671875,0.4023284912109375
1716403997764510000,5.109510009765625,4.4857330322265625,2.8184814453125,0.289398193359375
1716403997774642000,5.119641845703125,5.0545806884765625,2.5063629150390625,0.1956634521484375
1716403997784773600,5.129773681640625,5.504119873046875,1.8011627197265625,0.1360015869140625
1716403997794905600,5.139905517578125,5.858856201171875,0.65386962890625,0.166900634765625
1716403997805037300,5.150037353515625,6.1656494140625,-0.555206298828125,0.3160400390625
1716403997815169300,5.160169189453125,6.325439453125,-1.6801300048828125,0.5003204345703125
1716403997825301000,5.170301025390625,6.1624603271484375,-2.9115753173828125,0.7900848388671875
1716403997835433000,5.180432861328125,5.6788330078125,-3.4463348388671875,0.927490234375
1716403997845564700,5.190564697265625,5.0662994384765625,-2.982940673828125,0.702728271484375
1716403997855696600,5.200696533203125,4.19384765625,-2.0561676025390625,0.26702880859375
1716403997865828400,5.210828369140625,3.1743927001953125,-1.28277587890625,0.07421875
1716403997875960300,5.220960205078125,2.1954193115234375,-0.6734466552734375,0.293670654296875
1716403997886092000,5.231092041015625,1.309112548828125,-0.2984771728515625,0.452392578125
1716403997896223700,5.2412236328125,0.5091094970703125,-0.409271240234375,0.4246978759765625
1716403997906355700,5.251355712890625,-0.0693359375,-0.3304290771484375,0.326690673828125
1716403997916487400,5.2614873046875,-0.4389801025390625,0.2256317138671875,0.225494384765625
1716403997926619400,5.271619384765625,-0.7489776611328125,0.9446868896484375,0.1839447021484375
1716403997936751000,5.281751220703125,-1.07281494140625,1.177978515625,0.12322998046875
1716403997946883000,5.291883056640625,-1.3785400390625,1.2855682373046875,-0.006744384765625
1716403997957014800,5.302014892578125,-1.699188232421875,1.451751708984375,-0.16546630859375
1716403997967146800,5.312146728515625,-2.0603179931640625,1.48797607421875,-0.1729278564453125
1716403997977278500,5.322278564453125,-1.699188232421875,1.506072998046875,0.1722259521484375
1716403997987410400,5.332410400390625,-0.843780517578125,0.9287109375,-0.14202880859375
1716403997997542100,5.342542236328125,-0.0522918701171875,0.1318817138671875,-0.700225830078125
1716403998007674000,5.352674072265625,0.3631591796875,-0.2601318359375,-0.789703369140625
1716403998017805800,5.362805908203125,0.5154876708984375,-0.1610565185546875,-0.4765167236328125
1716403998027937800,5.372937744140625,0.5272064208984375,0.0786285400390625,-0.131378173828125
1716403998038069500,5.383069580078125,0.4728851318359375,0.25439453125,0.0145721435546875
1716403998048201500,5.393201416015625,0.4132232666015625,0.3406829833984375,0.015625
1716403998058333200,5.403333251953125,0.317352294921875,0.232025146484375,-0.030181884765625
1716403998068465200,5.413465087890625,0.2321319580078125,-0.0279083251953125,0.0017852783203125
1716403998078596900,5.423596923828125,0.192718505859375,-0.031097412109375,0.129608154296875
1716403998088728800,5.433728759765625,0.2694244384765625,0.2469329833984375,0.3341522216796875
1716403998098860500,5.443860595703125,0.4728851318359375,0.457855224609375,0.6420135498046875
1716403998108992500,5.453992431640625,0.7360076904296875,0.29913330078125,0.9115142822265625
1716403998119124200,5.464124267578125,0.9490509033203125,0.130828857421875,1.1511993408203125
1716403998129256200,5.474256103515625,1.0555877685546875,0.2139129638671875,1.4068603515625
1716403998139388000,5.484387939453125,1.115234375,0.25439453125,1.605010986328125
1716403998149520000,5.494519775390625,1.1557159423828125,0.1436004638671875,1.6976776123046875
1716403998159651600,5.504651611328125,1.184478759765625,-0.041748046875,1.661468505859375
1716403998169783600,5.514783447265625,1.220703125,-0.2015380859375,1.5645294189453125
1716403998179915300,5.524915283203125,1.2143096923828125,-0.3016815185546875,1.4814300537109375
1716403998190047200,5.535047119140625,1.1354827880859375,-0.416717529296875,1.410064697265625
1716403998200179000,5.545178955078125,1.026824951171875,-0.555206298828125,1.297149658203125
1716403998210311000,5.555310791015625,0.944793701171875,-0.569061279296875,1.1224365234375
1716403998220412200,5.565412109375,0.8702239990234375,-0.4124603271484375,0.9253692626953125
1716403998230544000,5.5755439453125,0.7360076904296875,-0.181304931640625,0.6707611083984375
1716403998240675800,5.58567578125,0.606048583984375,0.050933837890625,0.317108154296875
1716403998250807600,5.5958076171875,0.5048370361328125,0.187286376953125,-0.1004791259765625
1716403998260939500,5.605939453125,0.411102294921875,0.26824951171875,-0.542572021484375
1716403998271071200,5.6160712890625,0.2332000732421875,0.41204833984375,-0.906890869140625
1716403998281203200,5.626203125,-0.0544281005859375,0.64215087890625,-1.1156768798828125
1716403998291335000,5.6363349609375,-0.3814544677734375,0.79022216796875,-1.2062225341796875
1716403998301467000,5.646466796875,-0.65203857421875,0.69647216796875,-1.3223419189453125
1716403998311598600,5.6565986328125,-0.82354736328125,0.5132598876953125,-1.5961151123046875
1716403998321730600,5.66673046875,-0.8991851806640625,0.262908935546875,-2.02435302734375
1716403998331862300,5.6768623046875,-0.9076995849609375,-0.0364227294921875,-2.5015869140625
1716403998341994200,5.686994140625,-1.073883056640625,-0.2771759033203125,-2.765777587890625
1716403998352126000,5.6971259765625,-1.5670928955078125,-0.2175140380859375,-2.77642822265625
1716403998362258000,5.7072578125,-2.0453948974609375,0.422698974609375,-2.6997222900390625
1716403998372389600,5.7173896484375,-2.3138427734375,1.496490478515625,-2.5175628662109375
1716403998382521600,5.727521484375,-2.427825927734375,2.3029022216796875,-2.1468505859375
1716403998392653300,5.7376533203125,-2.443817138671875,2.4392547607421875,-1.774017333984375
1716403998402785000,5.747784912109375,-2.39801025390625,1.962005615234375,-1.488525390625
1716403998412917000,5.7579169921875,-2.3436737060546875,1.176910400390625,-1.2275390625
1716403998423048700,5.768048583984375,-2.2669830322265625,0.366241455078125,-1.0560302734375
1716403998433180700,5.7781806640625,-2.168975830078125,-0.3762359619140625,-1.0155487060546875
1716403998443312400,5.7883125,-2.0251617431640625,-1.058013916015625,-1.05389404296875
1716403998453444400,5.7984443359375,-1.8312835693359375,-1.6428375244140625,-1.05389404296875
1716403998463576000,5.808576171875,-1.6629791259765625,-2.0327301025390625,-1.033660888671875
1716403998473708000,5.8187080078125,-1.5926666259765625,-2.1690826416015625,-1.1689453125
1716403998483839700,5.82883984375,-1.6480560302734375,-1.89105224609375,-1.637664794921875
1716403998493971700,5.8389716796875,-1.689605712890625,-1.0175323486328125,-2.276824951171875
1716403998504103400,5.849103515625,-1.4765472412109375,-0.3336334228515625,-2.697601318359375
1716403998514235400,5.8592353515625,-1.22088623046875,-0.280364990234375,-2.773223876953125
1716403998524367000,5.8693671875,-1.15057373046875,-0.5477447509765625,-2.637939453125
1716403998534499000,5.8794990234375,-1.2400665283203125,-0.6521453857421875,-2.51116943359375
1716403998544630800,5.889630859375,-1.416900634765625,-0.610595703125,-2.4834747314453125
1716403998554762800,5.8997626953125,-1.6384735107421875,-0.6308441162109375,-2.5133056640625
1716403998564894500,5.90989453125,-1.835540771484375,-0.8257904052734375,-2.615570068359375
1716403998575026400,5.9200263671875,-1.96124267578125,-1.272125244140625,-2.730621337890625
1716403998585158100,5.930158203125,-1.9889373779296875,-1.864410400390625,-2.7572479248046875
1716403998595290000,5.9402900390625,-1.9580535888671875,-2.437530517578125,-2.664581298828125
1716403998605421800,5.950421875,-1.814239501953125,-2.7890625,-2.4856109619140625
1716403998615553800,5.9605537109375,-1.600128173828125,-3.0330047607421875,-2.2821502685546875
1716403998625685500,5.970685546875,-1.3647003173828125,-3.292938232421875,-2.1521759033203125
1716403998635817500,5.9808173828125,-1.1527099609375,-3.4921417236328125,-2.0733489990234375
1716403998645949200,5.99094921875,-0.992919921875,-3.6039886474609375,-1.9913330078125
1716403998656081200,6.0010810546875,-0.8842620849609375,-3.6380767822265625,-1.863494873046875
1716403998666212900,6.011212890625,-0.7926483154296875,-3.5177001953125,-1.6642913818359375
1716403998676344800,6.0213447265625,-0.7127532958984375,-3.1938629150390625,-1.418212890625
1716403998686476500,6.0314765625,-0.6243438720703125,-2.6228790283203125,-1.111419677734375
1716403998696608500,6.0416083984375,-0.5060882568359375,-1.9091644287109375,-0.7769317626953125
1716403998706740200,6.051740234375,-0.4176788330078125,-1.1656036376953125,-0.450958251953125
1716403998716872200,6.0618720703125,-0.4080963134765625,-0.455078125,-0.1580047607421875
1716403998727004000,6.07200390625,-0.4539031982421875,0.140411376953125,0.075286865234375
1716403998737135600,6.082135498046875,-0.5412445068359375,0.5537261962890625,0.2521209716796875
1716403998747267600,6.092267578125,-0.6243438720703125,0.7337646484375,0.4012603759765625
1716403998757399300,6.1023994140625,-0.6222076416015625,0.7401580810546875,0.5493316650390625
1716403998767531300,6.11253125,-0.5252685546875,0.6837005615234375,0.7091217041015625
1716403998777663000,6.1226630859375,-0.4070281982421875,0.5878143310546875,0.8689117431640625
1716403998787795000,6.132794921875,-0.342041015625,0.5249786376953125,1.0745086669921875
1716403998797926700,6.1429267578125,-0.3931732177734375,0.6517333984375,1.123504638671875
1716403998808058600,6.15305859375,-0.4421844482421875,0.826446533203125,1.135223388671875
1716403998818190300,6.1631904296875,-0.3590850830078125,0.9212493896484375,1.4771728515625
1716403998828322300,6.173322265625,-0.089569091796875,0.9191131591796875,2.0311126708984375
1716403998838454000,6.1834541015625,0.22467041015625,0.9574737548828125,2.7672119140625
1716403998848586000,6.1935859375,0.4824676513671875,0.8882293701171875,3.6939849853515625
1716403998858717700,6.2037177734375,0.819091796875,0.76678466796875,4.371490478515625
1716403998868849700,6.213849609375,1.3836822509765625,1.2866363525390625,3.588531494140625
1716403998878981400,6.2239814453125,2.0207061767578125,0.951080322265625,0.7410736083984375
1716403998889113300,6.23411328125,1.936553955078125,-0.7938232421875,-0.04827880859375
1716403998899245000,6.2442451171875,1.2004547119140625,1.63177490234375,1.3237762451171875
1716403998909377000,6.254376953125,-0.0576171875,2.638458251953125,2.8066253662109375
1716403998919508700,6.2645087890625,-0.6541595458984375,1.634979248046875,2.4092864990234375
1716403998929640700,6.274640625,-0.5135498046875,-0.2750396728515625,1.590087890625
1716403998939772400,6.2847724609375,-0.4496307373046875,-0.8811798095703125,1.1778411865234375
1716403998949904400,6.294904296875,-0.4975738525390625,-0.1610565185546875,1.328033447265625
1716403998960036000,6.3050361328125,-0.434722900390625,0.6155242919921875,1.77545166015625
1716403998970168000,6.31516796875,-0.0767974853515625,0.8850250244140625,1.9853057861328125
1716403998980299800,6.3252998046875,0.5059051513671875,0.838165283203125,1.7850341796875
1716403998990431700,6.335431640625,1.08221435546875,0.8615875244140625,1.5070037841796875
1716403999000533000,6.345532958984375,1.5328216552734375,1.0885009765625,1.4132537841796875
1716403999010664700,6.355664794921875,1.7852935791015625,1.2877044677734375,1.4281768798828125
1716403999020796700,6.365796630859375,1.8087310791015625,1.1747894287109375,1.3834381103515625
1716403999030928400,6.375928466796875,1.593536376953125,0.939361572265625,1.2534637451171875
1716403999041060400,6.386060302734375,1.2036590576171875,0.6570587158203125,1.0851593017578125
1716403999051192000,6.396192138671875,0.89898681640625,0.5079345703125,0.9786376953125
1716403999061324000,6.406323974609375,0.79779052734375,0.7103271484375,1.0521392822265625
1716403999071455700,6.416455810546875,0.7690277099609375,1.0565338134765625,1.30780029296875
1716403999081587700,6.426587646484375,0.760498046875,1.49755859375,1.616729736328125
1716403999091719400,6.436719482421875,0.7690277099609375,1.9950408935546875,1.8691864013671875
1716403999101851400,6.446851318359375,0.7924652099609375,2.3913116455078125,1.990631103515625
1716403999111983000,6.456983154296875,0.8734283447265625,2.5532379150390625,1.943756103515625
1716403999122115000,6.467114990234375,1.0374755859375,2.3487091064453125,1.7584075927734375
1716403999132246800,6.477246826171875,1.2334747314453125,1.841644287109375,1.53363037109375
1716403999142378800,6.487378662109375,1.3954010009765625,1.2493438720703125,1.3109893798828125
1716403999152510500,6.497510498046875,1.4965972900390625,0.7848968505859375,1.0989990234375
1716403999162642400,6.507642333984375,1.5424041748046875,0.5100555419921875,0.9125823974609375
1716403999172774100,6.517774169921875,1.529632568359375,0.2234954833984375,0.7506561279296875
1716403999182906000,6.527906005859375,1.438018798828125,-0.1525421142578125,0.620697021484375
1716403999193037800,6.538037841796875,1.2515869140625,-0.578643798828125,0.5727691650390625
1716403999203169800,6.548169677734375,1.01190185546875,-0.8236541748046875,0.61962890625
1716403999213301500,6.558301513671875,0.7999267578125,-0.738433837890625,0.691009521484375
1716403999223433200,6.56843310546875,0.6113739013671875,-0.5243072509765625,0.792205810546875
1716403999233565200,6.578565185546875,0.4142913818359375,-0.2601318359375,0.8912811279296875
1716403999243697000,6.58869677734375,0.238525390625,0.058380126953125,0.9147186279296875
1716403999253828900,6.598828857421875,0.1213531494140625,0.3673095703125,0.829498291015625
1716403999263960600,6.608960693359375,0.0414581298828125,0.644287109375,0.6739654541015625
1716403999274092500,6.619092529296875,-0.03631591796875,0.8615875244140625,0.5024566650390625
1716403999284224300,6.629224365234375,-0.1204681396484375,0.9766387939453125,0.383148193359375
1716403999294356200,6.639356201171875,-0.13751220703125,0.8850250244140625,0.323486328125
1716403999304488000,6.649488037109375,-0.08319091796875,0.6591949462890625,0.305389404296875
1716403999314620000,6.659619873046875,-0.0224609375,0.44720458984375,0.2957916259765625
1716403999324751600,6.669751708984375,-0.0086212158203125,0.3374786376953125,0.2180328369140625
1716403999334883600,6.679883544921875,-0.0427093505859375,0.26397705078125,0.0582427978515625
1716403999345015300,6.690015380859375,-0.0980987548828125,0.17236328125,-0.11859130859375
1716403999355147300,6.700147216796875,-0.1417694091796875,0.083953857421875,-0.25494384765625
1716403999365279000,6.710279052734375,-0.1673431396484375,0.0519866943359375,-0.3529510498046875
1716403999375411000,6.720410888671875,-0.204620361328125,0.0679779052734375,-0.4882354736328125
1716403999385542700,6.730542724609375,-0.2760009765625,0.114837646484375,-0.6490936279296875
1716403999395674600,6.740674560546875,-0.343109130859375,0.16064453125,-0.770538330078125
1716403999405806300,6.750806396484375,-0.3367156982421875,0.09674072265625,-0.838714599609375
1716403999415938300,6.760938232421875,-0.1982269287109375,0.037078857421875,-0.7769317626953125
1716403999426070000,6.771070068359375,0.0286712646484375,0.288482666015625,-0.5670623779296875
1716403999436202000,6.781201904296875,0.1863250732421875,0.5697174072265625,-0.3327178955078125
1716403999446333700,6.791333740234375,0.2640838623046875,0.2575836181640625,-0.1590728759765625
1716403999456465700,6.801465576171875,0.3365325927734375,-0.350677490234375,0.0209503173828125
1716403999466597400,6.811597412109375,0.4813995361328125,-0.7224578857421875,0.347991943359375
1716403999476729300,6.821729248046875,0.6987152099609375,-0.6510772705078125,0.64520263671875
1716403999486861000,6.831861083984375,0.9053802490234375,-0.303802490234375,0.874237060546875
1716403999496993000,6.841992919921875,1.0332183837890625,0.081817626953125,1.1501312255859375
1716403999507124700,6.852124755859375,1.069427490234375,0.2469329833984375,1.377044677734375
1716403999517256700,6.862256591796875,1.04705810546875,0.0669097900390625,1.4228515625
1716403999527388400,6.872388427734375,0.982086181640625,-0.2974090576171875,1.3482818603515625
1716403999537520400,6.882520263671875,0.8851470947265625,-0.416717529296875,1.31951904296875
1716403999547652000,6.892652099609375,0.7786102294921875,-0.1940765380859375,1.2907562255859375
1716403999557783800,6.90278369140625,0.6880645751953125,0.0125732421875,1.1533355712890625
1716403999567915800,6.912915771484375,0.6433258056640625,-0.07476806640625,0.927490234375
1716403999578047500,6.923047607421875,0.662506103515625,-0.409271240234375,0.7208404541015625
1716403999588179500,6.933179443359375,0.7061767578125,-0.81512451171875,0.65478515625
1716403999598311200,6.943311279296875,0.7296142578125,-1.07080078125,0.6739654541015625
1716403999608443100,6.953443115234375,0.7583770751953125,-0.98876953125,0.65478515625
1716403999618574800,6.963574951171875,0.822296142578125,-0.613800048828125,0.5812835693359375
1716403999628706800,6.973706787109375,0.878753662109375,-0.29315185546875,0.5035247802734375
1716403999638838500,6.983838623046875,0.8734283447265625,-0.2185821533203125,0.43109130859375
1716403999648970500,6.993970458984375,0.842529296875,-0.3070068359375,0.3767547607421875
1716403999659102200,7.004102294921875,0.785003662109375,-0.3432159423828125,0.3075103759765625
1716403999669234200,7.014234130859375,0.62628173828125,-0.2207183837890625,0.2148284912109375
1716403999679366000,7.024365966796875,0.3152313232421875,-0.0001983642578125,0.065704345703125
1716403999689497900,7.034497802734375,-0.056549072265625,0.062652587890625,-0.2837066650390625
1716403999699629600,7.044629638671875,-0.37506103515625,-0.2974090576171875,-0.8546905517578125
1716403999709761500,7.054761474609375,-0.5859832763671875,-0.88543701171875,-1.4235382080078125
1716403999719893200,7.064893310546875,-0.7255401611328125,-1.328582763671875,-1.7899932861328125
1716403999730025200,7.075025146484375,-0.8959808349609375,-1.436187744140625,-2.07122802734375
1716403999740157000,7.085156982421875,-1.153778076171875,-1.1890411376953125,-2.3226318359375
1716403999750289000,7.095288818359375,-1.4776153564453125,-0.65960693359375,-2.4898681640625
1716403999760420600,7.105420654296875,-1.77056884765625,-0.089691162109375,-2.4632415771484375
1716403999770552600,7.115552490234375,-1.894134521484375,0.3641204833984375,-2.319427490234375
1716403999780684300,7.125684326171875,-1.8078460693359375,0.6751708984375,-2.2129058837890625
1716403999790816300,7.135816162109375,-1.584136962890625,0.882904052734375,-2.105316162109375
1716403999800948000,7.145947998046875,-1.334869384765625,0.9329681396484375,-1.9018402099609375
1716403999811080000,7.156079833984375,-1.2283477783203125,0.699676513671875,-1.541778564453125
1716403999821181200,7.16618115234375,-1.337005615234375,0.08502197265625,-1.0965118408203125
1716403999831313000,7.17631298828125,-1.573486328125,-0.9024810791015625,-0.8674774169921875
1716403999841444900,7.18644482421875,-1.5564422607421875,-1.96881103515625,-1.1412506103515625
1716403999851576600,7.19657666015625,-1.165496826171875,-2.3831939697265625,-1.6397857666015625
1716403999861708500,7.20670849609375,-0.6925201416015625,-1.959228515625,-1.976409912109375
1716403999871840300,7.21684033203125,-0.3058319091796875,-1.3743896484375,-2.0392608642578125
1716403999881972200,7.22697216796875,-0.1748046875,-1.170928955078125,-1.89544677734375
1716403999892104000,7.23710400390625,-0.356964111328125,-1.077178955078125,-1.637664794921875
1716403999902236000,7.24723583984375,-0.7457733154296875,-0.7544097900390625,-1.4107513427734375
1716403999912367600,7.25736767578125,-1.243255615234375,-0.1152496337890625,-1.315948486328125
1716403999922499600,7.26749951171875,-1.8078460693359375,0.3971405029296875,-1.327667236328125
1716403999932631300,7.27763134765625,-2.3351593017578125,0.18621826171875,-1.3585662841796875
1716403999942763300,7.28776318359375,-2.65899658203125,-0.46466064453125,-1.3798675537109375
1716403999952895000,7.29789501953125,-2.7420806884765625,-1.173065185546875,-1.4001007080078125
1716403999963027000,7.30802685546875,-2.648345947265625,-1.7674713134765625,-1.3756103515625
1716403999973158700,7.31815869140625,-2.4704437255859375,-2.1914520263671875,-1.280792236328125
1716403999983290600,7.32829052734375,-2.3085174560546875,-2.49505615234375,-1.165740966796875
1716403999993422300,7.33842236328125,-2.1977386474609375,-2.6591033935546875,-1.0847930908203125
1716404000003554300,7.34855419921875,-2.1348876953125,-2.6995849609375,-1.021942138671875
1716404000013686000,7.35868603515625,-2.0944061279296875,-2.7272796630859375,-0.9558868408203125
1716404000023818000,7.36881787109375,-2.065643310546875,-2.7837371826171875,-0.857879638671875
1716404000033949700,7.37894970703125,-2.0368804931640625,-2.8327484130859375,-0.7204742431640625
1716404000044081700,7.38908154296875,-2.0230255126953125,-2.803985595703125,-0.5670623779296875
1716404000054213400,7.39921337890625,-2.0017242431640625,-2.7485809326171875,-0.4094085693359375
1716404000064345000,7.409344970703125,-1.983612060546875,-2.731536865234375,-0.2613372802734375
1716404000074477000,7.41947705078125,-1.91864013671875,-2.6527099609375,-0.128173828125
1716404000084608800,7.42960888671875,-1.7918701171875,-2.5206146240234375,-0.0152587890625
1716404000094740700,7.43974072265625,-1.64593505859375,-2.3373870849609375,0.11151123046875
1716404000104872400,7.44987255859375,-1.49359130859375,-2.1126251220703125,0.28302001953125
1716404000115004400,7.46000439453125,-1.3412628173828125,-1.833526611328125,0.487548828125
1716404000125136100,7.47013623046875,-1.1942596435546875,-1.5224609375,0.71337890625
1716404000135268000,7.48026806640625,-1.0440521240234375,-1.239105224609375,0.9583892822265625
1716404000145399800,7.49039990234375,-0.8746795654296875,-0.975982666015625,1.2087249755859375
1716404000155531800,7.50053173828125,-0.6925201416015625,-0.72564697265625,1.42071533203125
1716404000165663500,7.51066357421875,-0.5135498046875,-0.5211181640625,1.578369140625
1716404000175795500,7.52079541015625,-0.3516387939453125,-0.4124603271484375,1.69342041015625
1716404000185927200,7.53092724609375,-0.2014312744140625,-0.4007415771484375,1.776519775390625
1716404000196059100,7.54105908203125,-0.068267822265625,-0.455078125,1.8319091796875
1716404000206190800,7.55119091796875,0.05316162109375,-0.54669189453125,1.875579833984375
1716404000216322800,7.56132275390625,0.1522369384765625,-0.6095428466796875,1.90966796875
1716404000226454500,7.57145458984375,0.21295166015625,-0.5978240966796875,1.9054107666015625
1716404000236586500,7.58158642578125,0.2342681884765625,-0.5445556640625,1.8819732666015625
1716404000246718200,7.59171826171875,0.2417144775390625,-0.48809814453125,1.82977294921875
1716404000256850200,7.60185009765625,0.2193450927734375,-0.409271240234375,1.6912994384765625
1716404000266982000,7.61198193359375,0.145843505859375,-0.4135284423828125,1.421783447265625
1716404000277113900,7.62211376953125,0.011627197265625,-0.6287078857421875,1.1171112060546875
1716404000287245600,7.63224560546875,-0.1684112548828125,-1.03350830078125,0.9040679931640625
1716404000297377500,7.64237744140625,-0.365478515625,-1.4841156005859375,0.7314910888671875
1716404000307509200,7.65250927734375,-0.5305938720703125,-1.87933349609375,0.53228759765625
1716404000317641200,7.66264111328125,-0.6893157958984375,-2.13818359375,0.3448028564453125
1716404000327773000,7.67277294921875,-0.881072998046875,-2.0550994873046875,0.2180328369140625
1716404000337905000,7.68290478515625,-1.064300537109375,-1.6279296875,0.3863372802734375
1716404000348036600,7.69303662109375,-1.200653076171875,-0.9141998291015625,0.90618896484375
1716404000358168600,7.70316845703125,-1.210235595703125,-0.155731201171875,1.5623931884765625
1716404000368300300,7.71330029296875,-0.9630889892578125,0.38116455078125,2.103546142578125
1716404000378432000,7.723431884765625,-0.467742919921875,0.7572021484375,2.275054931640625
1716404000388564000,7.73356396484375,0.0137481689453125,0.8850250244140625,1.896881103515625
1716404000398695700,7.74369580078125,0.1959075927734375,0.1713104248046875,0.8582611083984375
1716404000408827600,7.75382763671875,-0.2142181396484375,-1.285980224609375,-0.4349822998046875
1716404000418959400,7.76395947265625,-0.8192901611328125,-1.558685302734375,-1.0613555908203125
1716404000429091300,7.77409130859375,-0.7383270263671875,-0.704345703125,-0.98358154296875
1716404000439223000,7.78422314453125,-0.2440338134765625,0.2735748291015625,-0.4765167236328125
1716404000449355000,7.79435498046875,0.272613525390625,0.8200531005859375,0.0102996826171875
1716404000459486700,7.80448681640625,0.6912689208984375,0.7998046875,0.122161865234375
1716404000469618700,7.81461865234375,0.97674560546875,0.51751708984375,0.122161865234375
1716404000479750400,7.82475048828125,1.0875396728515625,0.1414794921875,0.326690673828125
1716404000489882400,7.83488232421875,1.092864990234375,-0.2963409423828125,0.531219482421875
1716404000500014000,7.84501416015625,1.0992584228515625,-0.8108673095703125,0.6292266845703125
1716404000510146000,7.85514599609375,1.045989990234375,-1.2241973876953125,0.667572021484375
1716404000520277800,7.86527783203125,0.8798065185546875,-1.4042205810546875,0.6366729736328125
1716404000530409700,7.87540966796875,0.7008514404296875,-1.4638824462890625,0.5951385498046875
1716404000540541400,7.88554150390625,0.5644989013671875,-1.5980987548828125,0.6047210693359375
1716404000550673400,7.89567333984375,0.4952545166015625,-1.7131500244140625,0.712310791015625
1716404000560805000,7.90580517578125,0.48779296875,-1.706756591796875,0.8689117431640625
1716404000570937000,7.91593701171875,0.5154876708984375,-1.5874481201171875,0.996734619140625
1716404000581068800,7.92606884765625,0.5431976318359375,-1.5107421875,1.0510711669921875
1716404000591200800,7.93620068359375,0.5421295166015625,-1.502227783203125,1.0595855712890625
1716404000601332500,7.94633251953125,0.53680419921875,-1.48944091796875,1.067047119140625
1716404000611464400,7.95646435546875,0.5762176513671875,-1.480926513671875,1.076629638671875
1716404000621596200,7.96659619140625,0.67315673828125,-1.457489013671875,1.069183349609375
1716404000631728000,7.97672802734375,0.8126983642578125,-1.377593994140625,1.0287017822265625
1716404000641859800,7.98685986328125,0.9511871337890625,-1.3594818115234375,0.98822021484375
1716404000651961000,7.996961181640625,1.050262451171875,-1.3861083984375,0.9583892822265625
1716404000662093000,8.007093017578125,1.1205596923828125,-1.390380859375,0.927490234375
1716404000672224800,8.017224853515625,1.14825439453125,-1.37652587890625,0.9221649169921875
1716404000682356700,8.027356689453125,1.1472015380859375,-1.4500274658203125,0.9445343017578125
1716404000692488400,8.037488525390625,1.1322784423828125,-1.5863800048828125,0.9583892822265625
1716404000702620400,8.047620361328125,1.0886077880859375,-1.7238006591796875,0.950927734375
1716404000712752000,8.057752197265625,1.0055084228515625,-1.8484344482421875,0.950927734375
1716404000722884000,8.067884033203125,0.889404296875,-1.9762725830078125,0.986083984375
1716404000733015800,8.078015869140625,0.7658233642578125,-2.0902557373046875,1.0137786865234375
1716404000743147800,8.088147705078125,0.658233642578125,-2.1797332763671875,1.022308349609375
1716404000753279500,8.098279541015625,0.5762176513671875,-2.2468414306640625,1.0148468017578125
1716404000763411500,8.108411376953125,0.512298583984375,-2.2713470458984375,1.0148468017578125
1716404000773543200,8.118543212890625,0.4600982666015625,-2.2511138916015625,1.0393524169921875
1716404000783675100,8.128675048828125,0.4260101318359375,-2.2042388916015625,1.0702362060546875
1716404000793806800,8.138806884765625,0.411102294921875,-2.1307373046875,1.069183349609375
1716404000803938800,8.148938720703125,0.4047088623046875,-2.035919189453125,1.0372161865234375
1716404000814070500,8.159070556640625,0.4036407470703125,-1.900634765625,0.974365234375
1716404000824202500,8.169202392578125,0.40045166015625,-1.753631591796875,0.9083251953125
1716404000834334200,8.179334228515625,0.408966064453125,-1.6098175048828125,0.8497314453125
1716404000844466200,8.189466064453125,0.43133544921875,-1.4404449462890625,0.7879486083984375
1716404000854598000,8.199597900390625,0.4739532470703125,-1.1901092529296875,0.6622467041015625
1716404000864729900,8.209729736328125,0.4931182861328125,-0.9493560791015625,0.509918212890625
1716404000874861600,8.219861572265625,0.4686279296875,-0.736297607421875,0.3863372802734375
1716404000884993300,8.2299931640625,0.41961669921875,-0.5211181640625,0.3107147216796875
1716404000895125200,8.240125244140625,0.3823394775390625,-0.2974090576171875,0.258514404296875
1716404000905257000,8.250257080078125,0.3631591796875,-0.097137451171875,0.2073822021484375
1716404000915389000,8.260388916015625,0.326934814453125,0.074371337890625,0.1583709716796875
1716404000925520600,8.270520751953125,0.2534332275390625,0.23309326171875,0.13067626953125
1716404000935652600,8.280652587890625,0.138397216796875,0.3385467529296875,0.09552001953125
1716404000945784300,8.290784423828125,0.0137481689453125,0.28955078125,-0.0110015869140625
1716404000955916300,8.300916259765625,-0.0416412353515625,0.0317535400390625,-0.186767578125
1716404000966048000,8.311048095703125,-0.0054168701171875,-0.3101959228515625,-0.3231201171875
1716404000976180000,8.321179931640625,0.06915283203125,-0.5488128662109375,-0.2975616455078125
1716404000986311700,8.331311767578125,0.089385986328125,-0.7096710205078125,-0.1590728759765625
1716404000996443600,8.341443603515625,-0.0086212158203125,-0.8289794921875,-0.0908966064453125
1716404001006575400,8.351575439453125,-0.1630859375,-0.865203857421875,-0.166534423828125
1716404001016707300,8.361707275390625,-0.3143463134765625,-0.8524169921875,-0.3295135498046875
1716404001026839000,8.371839111328125,-0.4261932373046875,-0.84283447265625,-0.5830535888671875
1716404001036971000,8.381970947265625,-0.5178070068359375,-0.8928985595703125,-0.9036865234375
1716404001047102700,8.392102783203125,-0.60302734375,-1.0761260986328125,-1.2403106689453125
1716404001057234700,8.402234619140625,-0.6903839111328125,-1.356292724609375,-1.567352294921875
1716404001067366400,8.412366455078125,-0.76495361328125,-1.6556243896484375,-1.78466796875
1716404001077498400,8.422498291015625,-0.8054351806640625,-1.8580322265625,-1.88372802734375
1716404001087630000,8.432630126953125,-0.8448486328125,-2.0316619873046875,-2.022216796875
1716404001097762000,8.442761962890625,-0.91302490234375,-2.378936767578125,-2.09466552734375
1716404001107893800,8.452893798828125,-0.991851806640625,-2.8391265869140625,-2.0147705078125
1716404001118025700,8.463025634765625,-1.1409912109375,-3.12994384765625,-1.896514892578125
1716404001128157400,8.473157470703125,-1.3774871826171875,-3.0106353759765625,-1.8794708251953125
1716404001138289400,8.483289306640625,-1.5894622802734375,-2.411956787109375,-1.9508514404296875
1716404001148421000,8.493421142578125,-1.767364501953125,-1.751495361328125,-1.9817352294921875
1716404001158553000,8.503552978515625,-1.91864013671875,-1.5384521484375,-1.9124908447265625
1716404001168684800,8.513684814453125,-2.0571136474609375,-1.6630859375,-1.7069091796875
1716404001178816800,8.523816650390625,-2.1529998779296875,-1.8132781982421875,-1.4107513427734375
1716404001188948500,8.533948486328125,-2.180694580078125,-1.856964111328125,-1.1103515625
1716404001199080200,8.544080078125,-2.189208984375,-1.8484344482421875,-0.8994293212890625
1716404001209212200,8.554212158203125,-2.2446136474609375,-1.8622894287109375,-0.782257080078125
1716404001219344000,8.56434375,-2.3532562255859375,-1.9549713134765625,-0.709808349609375
1716404001229475800,8.574475830078125,-2.496002197265625,-2.0902557373046875,-0.653350830078125
1716404001239607600,8.584607666015625,-2.6057281494140625,-2.1104888916015625,-0.6405792236328125
1716404001249739500,8.594739501953125,-2.6206512451171875,-2.094512939453125,-0.6363067626953125
1716404001259871200,8.604871337890625,-2.575897216796875,-2.1776123046875,-0.6011505126953125
1716404001270003200,8.615003173828125,-2.5609893798828125,-2.42474365234375,-0.5265960693359375
1716404001280135000,8.625135009765625,-2.566314697265625,-2.75604248046875,-0.472259521484375
1716404001290267000,8.635266845703125,-2.5247650146484375,-3.0607147216796875,-0.4573516845703125
1716404001300398600,8.645398681640625,-2.4949493408203125,-3.4218292236328125,-0.44775390625
1716404001310530600,8.655530517578125,-2.496002197265625,-3.8340911865234375,-0.4339141845703125
1716404001320662300,8.665662353515625,-2.47576904296875,-4.181365966796875,-0.4051513671875
1716404001330794200,8.675794189453125,-2.4022674560546875,-4.4135894775390625,-0.32525634765625
1716404001340926000,8.685926025390625,-2.3000030517578125,-4.445556640625,-0.2059478759765625
1716404001351058000,8.696057861328125,-2.20306396484375,-4.31878662109375,-0.1143341064453125
1716404001361189600,8.706189697265625,-2.1146392822265625,-4.1334228515625,-0.0578765869140625
1716404001371321600,8.716321533203125,-2.0049285888671875,-3.9129180908203125,-0.0110015869140625
1716404001381453300,8.726453369140625,-1.8898773193359375,-3.6529998779296875,0.04119873046875
1716404001391585300,8.736585205078125,-1.781219482421875,-3.3621826171875,0.1136322021484375
1716404001401717000,8.746717041015625,-1.6853485107421875,-3.055389404296875,0.2041778564453125
1716404001411849000,8.756848876953125,-1.59906005859375,-2.768829345703125,0.2968597412109375
1716404001421980700,8.766980712890625,-1.5031890869140625,-2.504638671875,0.394866943359375
1716404001432112600,8.777112548828125,-1.3987884521484375,-2.1797332763671875,0.48541259765625
1716404001442244400,8.787244384765625,-1.290130615234375,-1.831390380859375,0.50885009765625
1716404001452376300,8.797376220703125,-1.1591033935546875,-1.5277862548828125,0.449188232421875
1716404001462508000,8.807508056640625,-0.993988037109375,-1.2550811767578125,0.3448028564453125
1716404001472640000,8.817639892578125,-0.8182220458984375,-0.97705078125,0.2340087890625
1716404001482771700,8.827771728515625,-0.672271728515625,-0.785308837890625,0.15411376953125
1716404001492903700,8.837903564453125,-0.5561676025390625,-0.781036376953125,0.1274871826171875
1716404001503035400,8.848035400390625,-0.477325439453125,-0.8907623291015625,0.157318115234375
1716404001513167000,8.8581669921875,-0.4304656982421875,-0.95361328125,0.235076904296875
1716404001523299000,8.868299072265625,-0.3931732177734375,-0.97491455078125,0.3224334716796875
1716404001533400300,8.878400390625,-0.3697357177734375,-1.020721435546875,0.357574462890625
1716404001543532300,8.8885322265625,-0.377197265625,-1.05908203125,0.3426666259765625
1716404001553664000,8.8986640625,-0.4549560546875,-1.0899658203125,0.3405303955078125
1716404001563796000,8.9087958984375,-0.584930419921875,-1.12298583984375,0.3746185302734375
1716404001573927700,8.918927734375,-0.697845458984375,-1.1304473876953125,0.4427947998046875
1716404001584059600,8.9290595703125,-0.728729248046875,-1.0750579833984375,0.5131072998046875
1716404001594191400,8.93919140625,-0.67547607421875,-0.99835205078125,0.5823516845703125
1716404001604323300,8.9493232421875,-0.5753326416015625,-0.95361328125,0.6622467041015625
1716404001614455000,8.959455078125,-0.4602813720703125,-0.8875732421875,0.7645111083984375
1716404001624587000,8.9695869140625,-0.340972900390625,-0.781036376953125,0.860382080078125
1716404001634718700,8.97971875,-0.2333831787109375,-0.622314453125,0.921112060546875
1716404001644850700,8.9898505859375,-0.1279296875,-0.431640625,0.928558349609375
1716404001654982400,8.999982421875,-0.0054168701171875,-0.280364990234375,0.8912811279296875
1716404001665114400,9.0101142578125,0.1373291015625,-0.1482696533203125,0.761322021484375
1716404001675246000,9.02024609375,0.2779388427734375,0.027496337890625,0.484344482421875
1716404001685378000,9.0303779296875,0.44091796875,0.3183135986328125,0.237213134765625
1716404001695509800,9.040509765625,0.69232177734375,0.7848968505859375,0.1871337890625
1716404001705641500,9.050641357421876,0.7711639404296875,0.9713134765625,0.1945953369140625
1716404001715773400,9.0607734375,0.3354644775390625,0.6613311767578125,0.07635498046875
1716404001725905200,9.0709052734375,-0.18438720703125,0.23309326171875,0.0933990478515625
1716404001736037000,9.081037109375,-0.3857269287109375,-0.0012664794921875,0.25531005859375
1716404001746168800,9.0911689453125,-0.24298095703125,0.2820892333984375,0.36077880859375
1716404001756300800,9.10130078125,0.133056640625,0.9425506591796875,0.4364166259765625
1716404001766432500,9.1114326171875,0.52508544921875,1.440032958984375,0.53973388671875
1716404001776564500,9.121564453125,0.7317352294921875,1.71380615234375,0.6494598388671875
1716404001786696200,9.1316962890625,0.7466583251953125,1.8086090087890625,0.7964630126953125
1716404001796828200,9.141828125,0.672088623046875,1.6626739501953125,1.001007080078125
1716404001806959900,9.1519599609375,0.578338623046875,1.418731689453125,1.236419677734375
1716404001817091800,9.162091796875,0.4973907470703125,1.1502838134765625,1.452667236328125
1716404001827223600,9.1722236328125,0.4355926513671875,0.8583984375,1.5613250732421875
1716404001837355500,9.18235546875,0.420684814453125,0.5132598876953125,1.6071319580078125
1716404001847487200,9.1924873046875,0.4686279296875,0.138275146484375,1.601806640625
1716404001857619200,9.202619140625,0.5762176513671875,-0.1759796142578125,1.520843505859375
1716404001867751000,9.2127509765625,0.672088623046875,-0.454010009765625,1.410064697265625
1716404001877883000,9.2228828125,0.693389892578125,-0.712860107421875,1.33123779296875
1716404001888014600,9.2330146484375,0.64971923828125,-0.8375091552734375,1.2801055908203125
1716404001898146600,9.243146484375,0.6113739013671875,-0.8119354248046875,1.240692138671875
1716404001908278300,9.2532783203125,0.582611083984375,-0.7341766357421875,1.248138427734375
1716404001918410200,9.26341015625,0.5740814208984375,-0.6074066162109375,1.261993408203125
1716404001928542000,9.2735419921875,0.6124267578125,-0.3666534423828125,1.217254638671875
1716404001938674000,9.283673828125,0.68060302734375,-0.193023681640625,1.1277618408203125
1716404001948805600,9.2938056640625,0.7455902099609375,-0.1599884033203125,1.0361480712890625
1716404001958937600,9.3039375,0.8126983642578125,-0.181304931640625,0.9477386474609375
1716404001969069300,9.3140693359375,0.867034912109375,-0.2249755859375,0.8806304931640625
1716404001979201300,9.324201171875,0.8947296142578125,-0.2409515380859375,0.8422698974609375
1716404001989333000,9.3343330078125,0.8968658447265625,-0.22711181640625,0.813507080078125
1716404001999465000,9.34446484375,0.8712921142578125,-0.18768310546875,0.7751617431640625
1716404002009596700,9.3545966796875,0.831878662109375,-0.158935546875,0.7219085693359375
1716404002019728400,9.364728271484376,0.7935333251953125,-0.1749114990234375,0.66864013671875
1716404002029860400,9.3748603515625,0.76263427734375,-0.214324951171875,0.6260223388671875
1716404002039992000,9.384991943359376,0.7338714599609375,-0.247344970703125,0.589813232421875
1716404002050124000,9.3951240234375,0.6997833251953125,-0.267578125,0.585540771484375
1716404002060255700,9.405255859375,0.66888427734375,-0.256927490234375,0.634552001953125
1716404002070377000,9.415376953125,0.6475830078125,-0.200469970703125,0.7091217041015625
1716404002080509000,9.425509033203125,0.6230926513671875,-0.0950164794921875,0.7527923583984375
1716404002090640600,9.435640625,0.5836639404296875,0.0445404052734375,0.73895263671875
1716404002100772600,9.445772705078125,0.52081298828125,0.140411376953125,0.6963348388671875
1716404002110904300,9.455904296875,0.4281463623046875,0.1894073486328125,0.6494598388671875
1716404002121036300,9.466036376953125,0.3258819580078125,0.25439453125,0.608978271484375
1716404002131168000,9.47616796875,0.2417144775390625,0.34600830078125,0.5812835693359375
1716404002141300000,9.486300048828125,0.179931640625,0.426971435546875,0.5621185302734375
1716404002151431700,9.496431640625,0.1160125732421875,0.4781036376953125,0.5258941650390625
1716404002161563600,9.506563720703125,0.0499725341796875,0.5207061767578125,0.4715576171875
1716404002171695400,9.5166953125,-0.0150146484375,0.56011962890625,0.439605712890625
1716404002181827300,9.526827392578125,-0.044830322265625,0.542022705078125,0.4459991455078125
1716404002191959000,9.536958984375,-0.0405731201171875,0.45892333984375,0.463043212890625
1716404002202091000,9.547091064453125,-0.0288543701171875,0.33642578125,0.4768829345703125
1716404002212222700,9.55722265625,-0.0384368896484375,0.210723876953125,0.4768829345703125
1716404002222354700,9.567354736328125,-0.0725250244140625,0.12762451171875,0.4566497802734375
1716404002232486400,9.577486328125,-0.1087493896484375,0.1020660400390625,0.427886962890625
1716404002242618400,9.587618408203125,-0.1279296875,0.1244354248046875,0.4108428955078125
1716404002252750000,9.59775,-0.124725341796875,0.1894073486328125,0.4332122802734375
1716404002262882000,9.607882080078125,-0.09063720703125,0.278900146484375,0.4673004150390625
1716404002273013800,9.618013671875,-0.023529052734375,0.4290924072265625,0.465179443359375
1716404002283145700,9.628145751953125,0.0787353515625,0.643218994140625,0.428955078125
1716404002293277400,9.63827734375,0.2193450927734375,0.8892974853515625,0.3874053955078125
1716404002303409400,9.648409423828125,0.3578338623046875,1.0810394287109375,0.3522491455078125
1716404002313541000,9.658541015625,0.46649169921875,1.1747894287109375,0.2755584716796875
1716404002323672800,9.6686728515625,0.5495758056640625,1.1385650634765625,0.122161865234375
1716404002333804800,9.6788046875,0.58154296875,0.9084625244140625,-0.074920654296875
1716404002343936500,9.6889365234375,0.5431976318359375,0.5111236572265625,-0.277313232421875
1716404002354068500,9.699068359375,0.4377288818359375,0.1340179443359375,-0.44989013671875
1716404002364200200,9.7092001953125,0.2545013427734375,-0.076904296875,-0.53192138671875
1716404002374332200,9.719332275390625,0.0489044189453125,-0.1365509033203125,-0.5265960693359375
1716404002384464000,9.7294638671875,-0.136444091796875,-0.1195068359375,-0.486114501953125
1716404002394595800,9.739595947265625,-0.2813262939453125,-0.09820556640625,-0.470123291015625
1716404002404727600,9.7497275390625,-0.4070281982421875,-0.1141815185546875,-0.5223236083984375
1716404002414859500,9.759859619140625,-0.53912353515625,-0.0907440185546875,-0.655487060546875
1716404002424991200,9.7699912109375,-0.66375732421875,-0.077972412109375,-0.8759918212890625
1716404002435123200,9.780123291015625,-0.7819976806640625,-0.155731201171875,-1.181732177734375
1716404002445255000,9.7902548828125,-0.8746795654296875,-0.3101959228515625,-1.5428466796875
1716404002455356400,9.8003564453125,-0.9993133544921875,-0.54241943359375,-1.91143798828125
1716404002465488100,9.810488037109375,-1.2017059326171875,-0.531768798828125,-2.2682952880859375
1716404002475620000,9.8206201171875,-1.424346923828125,-0.1972808837890625,-2.52288818359375
1716404002485751800,9.830751708984375,-1.6587066650390625,0.2000732421875,-2.556976318359375
1716404002495883800,9.8408837890625,-1.90478515625,0.6272430419921875,-2.4270172119140625
1716404002506015500,9.851015380859375,-2.0699005126953125,1.1960906982421875,-2.241668701171875
1716404002516147200,9.861147216796875,-2.1412811279296875,1.6807861328125,-2.0424652099609375
1716404002526279200,9.871279052734375,-2.1146392822265625,1.828857421875,-1.89544677734375
1716404002536411000,9.881410888671875,-2.063507080078125,1.4325714111328125,-1.7335357666015625
1716404002546542800,9.89154296875,-2.0805511474609375,0.4322967529296875,-1.454437255859375
1716404002556674600,9.901674560546875,-2.178558349609375,-0.8822479248046875,-1.11993408203125
1716404002566806500,9.911806640625,-2.3000030517578125,-2.2947845458984375,-0.8344573974609375
1716404002576938200,9.921938232421875,-2.35113525390625,-3.2982635498046875,-0.7076873779296875
1716404002587070200,9.9320703125,-2.268035888671875,-3.563507080078125,-0.8110198974609375
1716404002597202000,9.942201904296875,-2.075225830078125,-3.3206329345703125,-0.97613525390625
1716404002607334000,9.952333984375,-1.82489013671875,-3.0031890869140625,-1.1732025146484375
1716404002617465600,9.962465576171875,-1.609710693359375,-2.803985595703125,-1.4235382080078125
1716404002627597600,9.97259765625,-1.482940673828125,-2.7943878173828125,-1.6877288818359375
1716404002637729300,9.982729248046875,-1.4424591064453125,-2.905181884765625,-1.900787353515625
1716404002647861200,9.992861328125,-1.4563140869140625,-3.018096923828125,-2.010498046875
1716404002657993000,10.002992919921875,-1.504241943359375,-3.0330047607421875,-2.025421142578125
1716404002668125000,10.013125,-1.5564422607421875,-2.905181884765625,-1.968963623046875
1716404002678256600,10.023256591796875,-1.597991943359375,-2.6473846435546875,-1.8368682861328125
1716404002688388600,10.033388671875,-1.6022491455078125,-2.3395233154296875,-1.647247314453125
1716404002698520300,10.043520263671875,-1.57562255859375,-2.08599853515625,-1.4469757080078125
1716404002708652300,10.05365234375,-1.5074462890625,-1.9176788330078125,-1.2669525146484375
1716404002718784000,10.063783935546875,-1.40625,-1.842041015625,-1.0986328125
1716404002728916000,10.073916015625,-1.276275634765625,-1.8164825439453125,-0.949493408203125
1716404002739047700,10.084047607421875,-1.132476806640625,-1.76641845703125,-0.8184661865234375
1716404002749179600,10.0941796875,-1.0099639892578125,-1.7056884765625,-0.709808349609375
1716404002759311400,10.104311279296875,-0.937530517578125,-1.615142822265625,-0.629913330078125
1716404002769443300,10.114443359375,-0.8959808349609375,-1.48944091796875,-0.5713348388671875
1716404002779575000,10.124574951171875,-0.86614990234375,-1.3807830810546875,-0.530853271484375
1716404002789707000,10.13470703125,-0.8331298828125,-1.2561492919921875,-0.48291015625
1716404002799838700,10.144838623046875,-0.785186767578125,-1.0761260986328125,-0.4115447998046875
1716404002809970700,10.154970703125,-0.717010498046875,-0.785308837890625,-0.315673828125
1716404002820102400,10.165102294921875,-0.637115478515625,-0.4007415771484375,-0.199554443359375
1716404002830234000,10.175234130859375,-0.538055419921875,-0.0374908447265625,-0.0227203369140625
1716404002840366000,10.185365966796875,-0.4272613525390625,0.210723876953125,0.237213134765625
1716404002850497800,10.195497802734375,-0.30902099609375,0.38861083984375,0.5578460693359375
1716404002860629800,10.205629638671875,-0.1939697265625,0.54840087890625,0.8774261474609375
1716404002870761500,10.215761474609375,-0.0640106201171875,0.6517333984375,1.1501312255859375
1716404002880893400,10.2258935546875,0.1021728515625,0.7614593505859375,1.3333587646484375
1716404002891025200,10.236025146484375,0.270477294921875,0.9287109375,1.3802337646484375
1716404002901157000,10.2461572265625,0.4015045166015625,1.077850341796875,1.3227081298828125
1716404002911288800,10.256288818359375,0.514434814453125,1.17584228515625,1.31951904296875
1716404002921420800,10.2664208984375,0.634796142578125,1.2205963134765625,1.5517425537109375
1716404002931552500,10.276552490234375,0.7935333251953125,1.3420257568359375,2.05029296875
1716404002941684500,10.2866845703125,1.00018310546875,1.4783782958984375,2.082244873046875
1716404002951816200,10.296816162109375,1.102447509765625,0.8179168701171875,1.5496063232421875
1716404002961948200,10.3069482421875,0.7690277099609375,0.8040771484375,1.38555908203125
1716404002972079900,10.317079833984375,0.59112548828125,2.457366943359375,1.5378875732421875
1716404002982211800,10.3272119140625,0.5740814208984375,2.034454345703125,1.67425537109375
1716404002992343600,10.337343505859375,0.3929901123046875,0.4631805419921875,1.65826416015625
1716404003002475500,10.3474755859375,0.2800750732421875,0.070098876953125,1.4590606689453125
1716404003012607200,10.357607177734375,0.2417144775390625,0.44720458984375,1.261993408203125
1716404003022739200,10.3677392578125,0.1841888427734375,0.9659881591796875,1.2982025146484375
1716404003032871000,10.377870849609375,0.2214813232421875,1.1854400634765625,1.4505462646484375
1716404003043003000,10.3880029296875,0.430267333984375,1.108734130859375,1.566650390625
1716404003053134600,10.398134521484375,0.7136383056640625,1.0448150634765625,1.569854736328125
1716404003063266600,10.4082666015625,1.0214996337890625,1.1492156982421875,1.5304412841796875
1716404003073398300,10.418398193359375,1.29632568359375,1.44110107421875,1.489959716796875
1716404003083530200,10.4285302734375,1.424163818359375,1.6925048828125,1.4377593994140625
1716404003093662000,10.438661865234375,1.3847503662109375,1.6296539306640625,1.377044677734375
1716404003103794000,10.4487939453125,1.240936279296875,1.2418975830078125,1.320587158203125
1716404003113925600,10.458925537109375,1.102447509765625,0.742279052734375,1.2662506103515625
1716404003124057600,10.4690576171875,1.0087127685546875,0.335357666015625,1.193817138671875
1716404003134189300,10.479189208984375,0.942657470703125,0.093536376953125,1.1458740234375
1716404003144321300,10.4893212890625,0.91070556640625,0.1095123291015625,1.1320343017578125
1716404003154453000,10.499452880859375,0.901123046875,0.288482666015625,1.1309661865234375
1716404003164584700,10.509584716796875,0.9043121337890625,0.50579833984375,1.13629150390625
1716404003174716700,10.519716552734375,0.9075164794921875,0.711395263671875,1.15972900390625
1716404003184848400,10.529848388671875,0.901123046875,0.9351043701171875,1.1778411865234375
1716404003194980400,10.53998046875,0.9032440185546875,1.20355224609375,1.182098388671875
1716404003205112000,10.550112060546875,0.933074951171875,1.3793182373046875,1.182098388671875
1716404003215244000,10.560244140625,1.00018310546875,1.418731689453125,1.168243408203125
1716404003225375700,10.570375732421875,1.0662384033203125,1.3303070068359375,1.1160430908203125
1716404003235507700,10.5805078125,1.1003265380859375,1.2078094482421875,0.997802734375
1716404003245639400,10.590639404296875,1.115234375,1.2046051025390625,0.8199005126953125
1716404003255771400,10.600771484375,1.10565185546875,1.063995361328125,0.65692138671875
1716404003265903000,10.610903076171875,1.0960693359375,0.765716552734375,0.5344085693359375
1716404003276035000,10.62103515625,1.09393310546875,0.4205780029296875,0.4694366455078125
1716404003286166800,10.631166748046875,1.115234375,0.11590576171875,0.449188232421875
1716404003296298800,10.641298828125,1.128021240234375,-0.16851806640625,0.4662322998046875
1716404003306430500,10.651430419921875,1.081146240234375,-0.45294189453125,0.5269622802734375
1716404003316562400,10.6615625,0.9852752685546875,-0.6873016357421875,0.620697021484375
1716404003326694100,10.671694091796875,0.8851470947265625,-0.785308837890625,0.6974029541015625
1716404003336826000,10.681826171875,0.7924652099609375,-0.739501953125,0.735748291015625
1716404003346957800,10.691957763671875,0.693389892578125,-0.622314453125,0.726165771484375
1716404003357089800,10.70208984375,0.5730133056640625,-0.54241943359375,0.6761016845703125
1716404003367221500,10.712221435546875,0.4355926513671875,-0.5147247314453125,0.5951385498046875
1716404003377353500,10.722353515625,0.2917938232421875,-0.498748779296875,0.505645751953125
1716404003387485200,10.732485107421875,0.1415863037109375,-0.496612548828125,0.440673828125
1716404003397617200,10.7426171875,0.0286712646484375,-0.4934234619140625,0.3991241455078125
1716404003407748900,10.752748779296875,-0.0288543701171875,-0.4625244140625,0.359710693359375
1716404003417850000,10.76285009765625,-0.0618743896484375,-0.409271240234375,0.3298797607421875
1716404003427982000,10.772982177734375,-0.070404052734375,-0.349609375,0.3202972412109375
1716404003438113800,10.78311376953125,-0.060821533203125,-0.247344970703125,0.3096466064453125
1716404003448245800,10.793245849609375,-0.056549072265625,-0.075836181640625,0.2968597412109375
1716404003458377500,10.80337744140625,-0.044830322265625,0.12017822265625,0.268096923828125
1716404003468509400,10.813509521484375,-0.0096893310546875,0.2586517333984375,0.232940673828125
1716404003478641200,10.82364111328125,0.058502197265625,0.3491973876953125,0.2073822021484375
1716404003488773000,10.833773193359375,0.1415863037109375,0.4397430419921875,0.1732940673828125
1716404003498904800,10.84390478515625,0.226806640625,0.54095458984375,0.122161865234375
1716404003509036800,10.854036865234375,0.2907257080078125,0.6282958984375,0.0582427978515625
1716404003519168500,10.86416845703125,0.331207275390625,0.7337646484375,-0.0216522216796875
1716404003529300500,10.874300537109375,0.3802032470703125,0.857330322265625,-0.104736328125
1716404003539432200,10.88443212890625,0.4451904296875,0.9883575439453125,-0.1835784912109375
1716404003549564200,10.894564208984375,0.5282745361328125,1.0299072265625,-0.2964935302734375
1716404003559696000,10.90469580078125,0.6092376708984375,0.8530731201171875,-0.4871673583984375
1716404003569827800,10.914827880859375,0.6241455078125,0.493011474609375,-0.7407073974609375
1716404003579959600,10.92495947265625,0.524017333984375,0.0573272705078125,-0.9771881103515625
1716404003590091500,10.935091552734375,0.3035125732421875,-0.3677215576171875,-1.0847930908203125
1716404003600223200,10.94522314453125,-0.044830322265625,-0.3911590576171875,-0.9771881103515625
1716404003610355200,10.955355224609375,-0.368682861328125,-0.0705108642578125,-0.71087646484375
1716404003620487000,10.96548681640625,-0.5540313720703125,0.0477294921875,-0.38385009765625
1716404003630619000,10.975618896484375,-0.6935882568359375,0.0594482421875,-0.1356353759765625
1716404003640750600,10.98575048828125,-0.8065032958984375,0.19580078125,-0.06427001953125
1716404003650882600,10.995882568359375,-0.934326171875,0.4216461181640625,-0.2261810302734375
1716404003661014300,11.00601416015625,-1.1122283935546875,0.654937744140625,-0.6139373779296875
1716404003671146000,11.01614599609375,-1.287994384765625,0.869049072265625,-1.134857177734375
1716404003681278000,11.02627783203125,-1.4435272216796875,0.9340362548828125,-1.6280670166015625
1716404003691409700,11.03640966796875,-1.585205078125,0.676239013671875,-1.952972412109375
1716404003701541600,11.046541748046875,-1.6959991455078125,0.25439453125,-2.068023681640625
1716404003711673300,11.05667333984375,-1.7886810302734375,-0.0960845947265625,-1.9977264404296875
1716404003721805300,11.066805419921875,-1.8525848388671875,-0.2601318359375,-1.84326171875
1716404003731937000,11.07693701171875,-1.84619140625,-0.2718505859375,-1.6855926513671875
1716404003742069000,11.087069091796875,-1.78228759765625,-0.2164459228515625,-1.5598907470703125
1716404003752200700,11.09720068359375,-1.7396697998046875,-0.1525421142578125,-1.465087890625
1716404003762332700,11.107332763671875,-1.7215576171875,-0.031097412109375,-1.485321044921875
1716404003772464400,11.11746435546875,-1.713043212890625,0.01470947265625,-1.5588226318359375
1716404003782596400,11.127596435546875,-1.71197509765625,-0.1962127685546875,-1.5055694580078125
1716404003792728000,11.13772802734375,-1.7162322998046875,-0.531768798828125,-1.36175537109375
1716404003802860000,11.147860107421875,-1.7055816650390625,-0.792755126953125,-1.3095550537109375
1716404003812991700,11.15799169921875,-1.61077880859375,-1.1368408203125,-1.4139556884765625
1716404003823123700,11.168123779296875,-1.3156890869140625,-1.5224609375,-1.6046295166015625
1716404003833255400,11.17825537109375,-0.9066314697265625,-1.7451019287109375,-1.7665557861328125
1716404003843387400,11.188387451171875,-0.6104888916015625,-1.7706756591796875,-1.873077392578125
1716404003853519000,11.19851904296875,-0.493316650390625,-1.6236724853515625,-1.9327392578125
1716404003863651000,11.208651123046875,-0.561492919921875,-1.32220458984375,-1.952972412109375
1716404003873782800,11.21878271484375,-0.76708984375,-0.9930267333984375,-1.941253662109375
1716404003883914800,11.228914794921875,-1.038726806640625,-0.7533416748046875,-1.91888427734375
1716404003894046500,11.23904638671875,-1.292266845703125,-0.6191253662109375,-1.8741455078125
1716404003904178400,11.249178466796875,-1.452056884765625,-0.6404266357421875,-1.807037353515625
1716404003914310100,11.25931005859375,-1.4957275390625,-0.794891357421875,-1.7196807861328125
1716404003924442000,11.269442138671875,-1.4605712890625,-0.99835205078125,-1.600372314453125
1716404003934573800,11.27957373046875,-1.379608154296875,-1.217803955078125,-1.4469757080078125
1716404003944705800,11.289705810546875,-1.2421875,-1.424468994140625,-1.2754669189453125
1716404003954837500,11.29983740234375,-1.063232421875,-1.6002349853515625,-1.1156768798828125
1716404003964969500,11.309969482421875,-0.881072998046875,-1.7451019287109375,-0.972930908203125
1716404003975101200,11.32010107421875,-0.7255401611328125,-1.798370361328125,-0.8344573974609375
1716404003985233000,11.33023291015625,-0.5987701416015625,-1.7376556396484375,-0.7130126953125
1716404003995364900,11.34036474609375,-0.482666015625,-1.5853118896484375,-0.5819854736328125
1716404004005496600,11.35049658203125,-0.387847900390625,-1.4148712158203125,-0.4328460693359375
1716404004015628500,11.360628662109375,-0.310089111328125,-1.2465667724609375,-0.2645263671875
1716404004025760300,11.37076025390625,-0.23126220703125,-1.0292510986328125,-0.08343505859375
1716404004035892200,11.380892333984375,-0.1524200439453125,-0.783172607421875,0.0901947021484375
1716404004046024000,11.39102392578125,-0.0735931396484375,-0.5051422119140625,0.2521209716796875
1716404004056156000,11.401156005859375,-0.0032958984375,-0.1504058837890625,0.4214935302734375
1716404004066287600,11.41128759765625,0.0435791015625,0.2256317138671875,0.601531982421875
1716404004076419600,11.421419677734375,0.068084716796875,0.5089874267578125,0.77197265625
1716404004086551300,11.43155126953125,0.0819244384765625,0.7167205810546875,0.9157867431640625
1716404004096683300,11.441683349609375,0.10003662109375,0.906341552734375,1.0393524169921875
1716404004106815000,11.45181494140625,0.112823486328125,1.1407012939453125,1.10113525390625
1716404004116947000,11.461947021484375,0.0936431884765625,1.4219207763671875,1.0989990234375
1716404004127078700,11.47207861328125,0.0403900146484375,1.77239990234375,1.1320343017578125
1716404004137210600,11.482210693359375,-0.07147216796875,1.9683990478515625,1.1181793212890625
1716404004147342300,11.49234228515625,-0.2003631591796875,1.6051483154296875,1.0489349365234375
1716404004157474300,11.502474365234375,-0.274932861328125,1.1492156982421875,1.27264404296875
1716404004167606000,11.51260595703125,-0.1577606201171875,1.1257781982421875,1.558135986328125
1716404004177738000,11.522738037109375,0.157562255859375,0.82537841796875,1.590087890625
1716404004187869700,11.53286962890625,0.41961669921875,0.18621826171875,1.3173828125
1716404004198001700,11.543001708984375,0.34185791015625,0.0573272705078125,1.03509521484375
1716404004208133400,11.55313330078125,0.171417236328125,0.481292724609375,0.9317626953125
1716404004218265300,11.563265380859375,0.0979156494140625,0.709259033203125,1.045745849609375
1716404004228397000,11.57339697265625,0.156494140625,0.6698455810546875,1.2342987060546875
1716404004238529000,11.583529052734375,0.3919219970703125,0.527099609375,1.3994140625
1716404004248660700,11.59366064453125,0.69659423828125,0.4514617919921875,1.4590606689453125
1716404004258792700,11.603792724609375,0.9852752685546875,0.462127685546875,1.4121856689453125
1716404004268924400,11.61392431640625,1.197265625,0.495147705078125,1.3056640625
1716404004279056400,11.624056396484375,1.2984619140625,0.4898223876953125,1.17144775390625
1716404004289188000,11.63418798828125,1.2696990966796875,0.4333648681640625,1.068115234375
1716404004299319800,11.64431982421875,1.1312103271484375,0.3747711181640625,1.0404205322265625
1716404004309451800,11.65445166015625,0.9746246337890625,0.3673095703125,1.079833984375
1716404004319583500,11.66458349609375,0.865966796875,0.3960723876953125,1.1511993408203125
1716404004329715500,11.674715576171875,0.8009796142578125,0.4322967529296875,1.2300262451171875
1716404004339847200,11.68484716796875,0.7935333251953125,0.504730224609375,1.2790374755859375
1716404004349979100,11.694979248046875,0.818023681640625,0.5931549072265625,1.27264404296875
1716404004360110800,11.70511083984375,0.8478546142578125,0.6911468505859375,1.2470703125
1716404004370242800,11.715242919921875,0.8595733642578125,0.7763671875,1.236419677734375
1716404004380374500,11.72537451171875,0.86810302734375,0.8115234375,1.2396240234375
1716404004390506500,11.735506591796875,0.8712921142578125,0.81365966796875,1.2342987060546875
1716404004400638200,11.74563818359375,0.8617095947265625,0.8328399658203125,1.2236480712890625
1716404004410739700,11.75573974609375,0.85638427734375,0.93829345703125,1.2215118408203125
1716404004420871400,11.765871337890625,0.878753662109375,1.1161956787109375,1.2044677734375
1716404004431003400,11.77600341796875,0.9373321533203125,1.2759857177734375,1.1384124755859375
1716404004441135000,11.786135009765625,1.0214996337890625,1.3100738525390625,1.0404205322265625
1716404004451267000,11.79626708984375,1.1088409423828125,1.1620025634765625,0.9370880126953125
1716404004461398800,11.806398681640625,1.1930084228515625,0.906341552734375,0.815643310546875
1716404004471530800,11.81653076171875,1.2707672119140625,0.71990966796875,0.6739654541015625
1716404004481662500,11.826662353515625,1.3293609619140625,0.5217742919921875,0.531219482421875
1716404004491794200,11.836794189453125,1.3527984619140625,0.3033905029296875,0.4129791259765625
1716404004501926100,11.846926025390625,1.322967529296875,0.0711669921875,0.3565216064453125
1716404004512057900,11.857057861328125,1.2377471923828125,-0.214324951171875,0.359710693359375
1716404004522189800,11.86718994140625,1.0747528076171875,-0.5093994140625,0.4332122802734375
1716404004532321500,11.877321533203125,0.8915252685546875,-0.7469482421875,0.55572509765625
1716404004542453500,11.88745361328125,0.73919677734375,-0.81512451171875,0.6526641845703125
1716404004552585200,11.897585205078125,0.61669921875,-0.72564697265625,0.6963348388671875
1716404004562717200,11.90771728515625,0.5080413818359375,-0.5733184814453125,0.7176361083984375
1716404004572849000,11.917848876953125,0.40045166015625,-0.4113922119140625,0.7527923583984375
1716404004582980900,11.92798095703125,0.326934814453125,-0.21539306640625,0.7623748779296875
1716404004593112600,11.938112548828125,0.2928466796875,-0.019378662109375,0.7421417236328125
1716404004603244500,11.94824462890625,0.2779388427734375,0.0541229248046875,0.702728271484375
1716404004613376300,11.958376220703125,0.273681640625,0.0317535400390625,0.646270751953125
1716404004623508200,11.96850830078125,0.28326416015625,-0.005523681640625,0.5727691650390625
1716404004633640000,11.978639892578125,0.33013916015625,-0.0119171142578125,0.5120391845703125
1716404004643772000,11.98877197265625,0.4057769775390625,0.0093841552734375,0.45025634765625
1716404004653903600,11.998903564453125,0.4856719970703125,0.0242919921875,0.3884735107421875
1716404004664035600,12.00903564453125,0.5410614013671875,0.00299072265625,0.32562255859375
1716404004674167300,12.019167236328125,0.54638671875,-0.0353546142578125,0.2883453369140625
1716404004684299300,12.02929931640625,0.5154876708984375,-0.0129852294921875,0.265960693359375
1716404004694431000,12.039430908203125,0.4718170166015625,0.06158447265625,0.2382659912109375
1716404004704563000,12.04956298828125,0.430267333984375,0.15106201171875,0.2041778564453125
1716404004714694700,12.059694580078125,0.387664794921875,0.2490692138671875,0.1477203369140625
1716404004724826600,12.06982666015625,0.2875213623046875,0.3278961181640625,0.0859375
1716404004734958300,12.079958251953125,0.1618194580078125,0.4088592529296875,0.07208251953125
1716404004745090300,12.09009033203125,0.0478363037109375,0.5547943115234375,0.1125640869140625
1716404004755222000,12.100221923828125,-0.0746612548828125,0.789154052734375,0.131744384765625
1716404004765354000,12.11035400390625,-0.208892822265625,1.017120361328125,0.0816802978515625
1716404004775485700,12.120485595703125,-0.319671630859375,1.077850341796875,0.0113677978515625
1716404004785617700,12.13061767578125,-0.345245361328125,0.960662841796875,-0.0227203369140625
1716404004795749400,12.140749267578125,-0.274932861328125,0.824310302734375,-0.025909423828125
1716404004805881000,12.150881103515625,-0.150299072265625,0.7508087158203125,-0.002471923828125
1716404004816013000,12.161012939453125,-0.0341796875,0.7156524658203125,0.0220184326171875
1716404004826144800,12.171144775390625,0.046783447265625,0.7412261962890625,0.0433349609375
1716404004836276700,12.18127685546875,0.122406005859375,0.8285675048828125,0.051849365234375
1716404004846408400,12.191408447265625,0.203369140625,0.890350341796875,0.0102996826171875
1716404004856540400,12.20154052734375,0.249176025390625,0.7976837158203125,-0.0781097412109375
1716404004866672000,12.211672119140625,0.2321319580078125,0.5334930419921875,-0.1697235107421875
1716404004876804000,12.22180419921875,0.167144775390625,0.23309326171875,-0.232574462890625
1716404004886935800,12.231935791015625,0.068084716796875,-0.0587921142578125,-0.21234130859375
1716404004897067800,12.24206787109375,-0.0427093505859375,-0.3666534423828125,-0.096221923828125
1716404004907199500,12.252199462890625,-0.11407470703125,-0.5850372314453125,0.015625
1716404004917331500,12.26233154296875,-0.150299072265625,-0.703277587890625,0.0390625
1716404004927463200,12.272463134765625,-0.1652069091796875,-0.7917022705078125,-0.0120697021484375
1716404004937595100,12.28259521484375,-0.181182861328125,-0.80767822265625,-0.117523193359375
1716404004947726800,12.292726806640625,-0.2110137939453125,-0.7235260009765625,-0.2826385498046875
1716404004957858800,12.30285888671875,-0.2696075439453125,-0.4806365966796875,-0.4893035888671875
1716404004967990500,12.312990478515625,-0.3473663330078125,-0.085418701171875,-0.7428436279296875
1716404004978122500,12.32312255859375,-0.41448974609375,0.370513916015625,-1.04217529296875
1716404004988254200,12.333254150390625,-0.4847869873046875,0.765716552734375,-1.374542236328125
1716404004998386200,12.34338623046875,-0.596649169921875,1.0330963134765625,-1.6951904296875
1716404005008518000,12.353517822265625,-0.7372589111328125,1.134307861328125,-1.9955902099609375
1716404005018649900,12.36364990234375,-0.8981170654296875,1.07464599609375,-2.2810821533203125
1716404005028781600,12.373781494140625,-1.0429840087890625,0.9681243896484375,-2.523956298828125
1716404005038913500,12.38391357421875,-1.1804046630859375,0.939361572265625,-2.6901397705078125
1716404005049045200,12.394045166015625,-1.360443115234375,1.0181884765625,-2.7828216552734375
1716404005059177200,12.40417724609375,-1.5255584716796875,1.0181884765625,-2.7913360595703125
1716404005069309000,12.414308837890625,-1.6714935302734375,0.91485595703125,-2.7114410400390625
1716404005079441000,12.42444091796875,-1.781219482421875,0.8072662353515625,-2.512237548828125
1716404005089572600,12.434572509765625,-1.83660888671875,0.685821533203125,-2.196929931640625
1716404005099704600,12.44470458984375,-1.88134765625,0.4844970703125,-1.81768798828125
1716404005109836300,12.454836181640625,-1.9367523193359375,0.12017822265625,-1.452301025390625
1716404005119968000,12.464968017578125,-2.0059814453125,-0.326171875,-1.1998291015625
1716404005130100000,12.475099853515625,-2.1050567626953125,-0.7544097900390625,-1.0709381103515625
1716404005140231700,12.485231689453125,-2.24993896484375,-1.04522705078125,-0.9622802734375
1716404005150363600,12.49536376953125,-2.3926849365234375,-1.0835723876953125,-0.83978271484375
1716404005160495400,12.505495361328125,-2.4480743408203125,-0.9056854248046875,-0.8195343017578125
1716404005170627300,12.51562744140625,-2.338348388671875,-0.8524169921875,-1.0464324951171875
1716404005180759000,12.525759033203125,-1.9889373779296875,-1.2667999267578125,-1.4576263427734375
1716404005190891000,12.53589111328125,-1.55218505859375,-1.91448974609375,-1.861358642578125
1716404005201022700,12.546022705078125,-1.2070465087890625,-2.3171539306640625,-2.1095733642578125
1716404005211154700,12.55615478515625,-0.97161865234375,-2.322479248046875,-2.157501220703125
1716404005221286400,12.566286376953125,-0.8629608154296875,-2.0806732177734375,-2.044586181640625
1716404005231418400,12.57641845703125,-0.8523101806640625,-1.6662750244140625,-1.8475189208984375
1716404005241550000,12.586550048828125,-0.8842620849609375,-1.2231292724609375,-1.6760101318359375
1716404005251682000,12.59668212890625,-0.9513702392578125,-0.9237823486328125,-1.56842041015625
1716404005261813800,12.606813720703125,-1.052581787109375,-0.81939697265625,-1.4906463623046875
1716404005271945700,12.61694580078125,-1.1409912109375,-0.90673828125,-1.42034912109375
1716404005282077400,12.627077392578125,-1.2027740478515625,-1.1325836181640625,-1.35003662109375
1716404005292209400,12.63720947265625,-1.2230224609375,-1.434051513671875,-1.2701416015625
1716404005302341000,12.647341064453125,-1.1995849609375,-1.6918487548828125,-1.1881103515625
1716404005312473000,12.65747314453125,-1.118621826171875,-1.8282012939453125,-1.1103515625
1716404005322604800,12.667604736328125,-0.992919921875,-1.8953094482421875,-1.0144805908203125
1716404005332736800,12.67773681640625,-0.881072998046875,-1.901702880859375,-0.895172119140625
1716404005342868500,12.687868408203125,-0.8096923828125,-1.800506591796875,-0.7428436279296875
1716404005353000400,12.69800048828125,-0.7692108154296875,-1.5970306396484375,-0.5723876953125
1716404005363132200,12.708132080078125,-0.7383270263671875,-1.321136474609375,-0.39129638671875
1716404005373264100,12.71826416015625,-0.707427978515625,-1.024993896484375,-0.2059478759765625
1716404005383395800,12.728395751953125,-0.6690826416015625,-0.71392822265625,-0.04083251953125
1716404005393527800,12.73852783203125,-0.6339263916015625,-0.416717529296875,0.0710296630859375
1716404005403659500,12.748659423828125,-0.60516357421875,-0.1706390380859375,0.12322998046875
1716404005413791500,12.75879150390625,-0.5774688720703125,0.0221710205078125,0.143463134765625
1716404005423923200,12.768923095703125,-0.5444488525390625,0.1787567138671875,0.1818084716796875
1716404005434024400,12.7790244140625,-0.5114288330078125,0.29913330078125,0.2542572021484375
1716404005444156400,12.789156494140625,-0.4858551025390625,0.4056549072265625,0.3554534912109375
1716404005454288100,12.7992880859375,-0.4528350830078125,0.4397430419921875,0.4555816650390625
1716404005464420000,12.809420166015625,-0.399566650390625,0.37689208984375,0.552520751953125
1716404005474551800,12.8195517578125,-0.3164825439453125,0.288482666015625,0.6505279541015625
1716404005484683800,12.829683837890625,-0.2056884765625,0.18408203125,0.7762298583984375
1716404005494815500,12.8398154296875,-0.070404052734375,0.0946044921875,0.9349517822265625
1716404005504947500,12.849947509765625,0.0904541015625,0.03814697265625,1.1096649169921875
1716404005515079200,12.8600791015625,0.2555694580078125,0.0669097900390625,1.297149658203125
1716404005525211100,12.870211181640625,0.4142913818359375,0.173431396484375,1.4484100341796875
1716404005535342800,12.8803427734375,0.5431976318359375,0.377960205078125,1.4239044189453125
1716404005545474800,12.890474853515625,0.53466796875,0.7838287353515625,1.0585174560546875
1716404005555606500,12.9006064453125,0.331207275390625,1.2759857177734375,0.39593505859375
1716404005565738500,12.910738525390625,0.06915283203125,1.829925537109375,-0.0504150390625
1716404005575870200,12.9208701171875,-0.0810546875,1.942840576171875,0.0699615478515625
1716404005586002200,12.931002197265625,-0.1396484375,1.45281982421875,0.5131072998046875
1716404005596134000,12.9411337890625,-0.128997802734375,1.054412841796875,1.26092529296875
1716404005606265900,12.951265869140625,-0.0757293701171875,0.2277679443359375,1.852142333984375
1716404005616397600,12.9613974609375,-0.0309906005859375,-0.635101318359375,1.95654296875
1716404005626529300,12.971529296875,0.0904541015625,-0.67132568359375,1.536834716796875
1716404005636661200,12.9816611328125,0.3013763427734375,-0.089691162109375,1.224700927734375
1716404005646793000,12.99179296875,0.467559814453125,0.2597198486328125,1.33123779296875
1716404005656925000,13.001925048828125,0.5730133056640625,0.241607666015625,1.602874755859375
1716404005667056600,13.012056640625,0.7296142578125,0.1595916748046875,1.6678619384765625
1716404005677188600,13.022188720703125,0.9202880859375,0.234161376953125,1.5037994384765625
1716404005687320300,13.0323203125,1.0960693359375,0.3524017333984375,1.36639404296875
1716404005697452300,13.042452392578125,1.2036590576171875,0.32470703125,1.31951904296875
1716404005707584000,13.052583984375,1.197265625,0.218170166015625,1.2758331298828125
1716404005717716000,13.062716064453125,1.081146240234375,0.1009979248046875,1.2300262451171875
1716404005727847700,13.07284765625,0.9533233642578125,-0.0023345947265625,1.172515869140625
1716404005737979600,13.082979736328125,0.8808746337890625,-0.088623046875,1.1075286865234375
1716404005748111400,13.093111328125,0.8478546142578125,-0.12164306640625,1.053192138671875
1716404005758243300,13.103243408203125,0.8169708251953125,-0.0460052490234375,1.021240234375
1716404005768375000,13.113375,0.78607177734375,0.142547607421875,1.044677734375
1716404005778507000,13.123507080078125,0.760498046875,0.3907470703125,1.1075286865234375
1716404005788638700,13.133638671875,0.761566162109375,0.6954193115234375,1.1650543212890625
1716404005798770700,13.143770751953125,0.795654296875,1.0330963134765625,1.1842193603515625
1716404005808902400,13.15390234375,0.853179931640625,1.3090057373046875,1.15545654296875
1716404005819034400,13.164034423828125,0.942657470703125,1.48583984375,1.1064605712890625
1716404005829166000,13.174166015625,1.0289459228515625,1.5721282958984375,1.0723724365234375
1716404005839298000,13.184298095703125,1.0779571533203125,1.62432861328125,1.057464599609375
1716404005849429800,13.1944296875,1.08221435546875,1.6168670654296875,1.068115234375
1716404005859561700,13.204561767578125,1.038543701171875,1.54443359375,1.0947418212890625
1716404005869693400,13.214693359375,0.942657470703125,1.451751708984375,1.123504638671875
1716404005879825400,13.224825439453125,0.843597412109375,1.3494873046875,1.13629150390625
1716404005889957000,13.23495703125,0.772216796875,1.2088775634765625,1.121368408203125
1716404005900089000,13.245089111328125,0.7360076904296875,0.9915618896484375,1.090484619140625
1716404005910220800,13.255220703125,0.7434539794921875,0.6911468505859375,1.045745849609375
1716404005920352800,13.265352783203125,0.7924652099609375,0.3268280029296875,0.9946136474609375
1716404005930484500,13.275484375,0.865966796875,-0.03216552734375,0.932830810546875
1716404005940616200,13.2856162109375,0.946929931640625,-0.237762451171875,0.8689117431640625
1716404005950748200,13.295748046875,1.00018310546875,-0.261199951171875,0.8305511474609375
1716404005960879900,13.3058798828125,1.045989990234375,-0.3112640380859375,0.806060791015625
1716404005971011800,13.31601171875,1.0875396728515625,-0.393280029296875,0.794342041015625
1716404005981143600,13.3261435546875,1.0981903076171875,-0.4859619140625,0.7996673583984375
1716404005991275500,13.336275634765625,1.07049560546875,-0.5829010009765625,0.8241729736328125
1716404006001407200,13.3464072265625,1.0140380859375,-0.564788818359375,0.848663330078125
1716404006011539200,13.356539306640625,0.944793701171875,-0.4369659423828125,0.8678436279296875
1716404006021671000,13.3666708984375,0.8702239990234375,-0.2771759033203125,0.872100830078125
1716404006031803000,13.376802978515625,0.772216796875,-0.1269683837890625,0.8689117431640625
1716404006041934600,13.3869345703125,0.6784820556640625,-0.0023345947265625,0.8571929931640625
