time,seconds_elapsed,z,y,x
1716403992923079400,0.268079345703125,0.2823209762573242,-0.33759593963623047,-0.48226046562194824
1716403992933150200,0.278150146484375,0.45235157012939453,-0.2407064437866211,-0.4753698706626892
1716403992943221000,0.288220947265625,0.5327129364013672,-0.17811870574951172,-0.4425617456436157
1716403992953291800,0.298291748046875,0.39890003204345703,-0.15079879760742188,-0.25694143772125244
1716403992963362600,0.308362548828125,-0.12766075134277344,-0.4262814521789551,0.9060388803482056
1716403992973433300,0.318433349609375,0.6712770462036133,-0.33826684951782227,1.063115119934082
1716403992983504100,0.328504150390625,1.525599479675293,0.20436620712280273,-0.034079551696777344
1716403992993575000,0.338574951171875,1.3851203918457031,0.5340914726257324,-0.9156848788261414
1716403993003676200,0.34867626953125,0.6752119064331055,0.4236788749694824,-1.093487024307251
1716403993013747000,0.358746826171875,0.04633903503417969,0.0679473876953125,-0.7213578224182129
1716403993023848400,0.368848388671875,-0.10605144500732422,-0.27043676376342773,-0.35733383893966675
1716403993033919200,0.378919189453125,-0.04191780090332031,-0.4029841423034668,-0.23705387115478516
1716403993044020500,0.3890205078125,0.029016494750976562,-0.31369972229003906,-0.2727115750312805
1716403993054121700,0.399121826171875,0.051849365234375,-0.09882354736328125,-0.29793626070022583
1716403993064192500,0.409192626953125,0.07256412506103516,0.07926702499389648,-0.28136610984802246
1716403993074294000,0.4192939453125,0.24144554138183594,0.17159652709960938,-0.17007410526275635
1716403993084395300,0.429395263671875,0.4887847900390625,0.14600324630737305,-0.019610702991485596
1716403993094496500,0.43949658203125,0.5977020263671875,0.030332565307617188,0.10054755210876465
1716403993104598000,0.449597900390625,0.30771541595458984,-0.1205587387084961,0.18214911222457886
1716403993114699300,0.45969921875,-0.16191959381103516,-0.16624879837036133,0.11014759540557861
1716403993124800500,0.469800537109375,-0.2591276168823242,-0.09019041061401367,-0.09986138343811035
1716403993134901800,0.47990185546875,0.17207050323486328,-0.003596782684326172,-0.20611435174942017
1716403993145033700,0.49003369140625,0.9456081390380859,0.04601001739501953,-0.21546781063079834
1716403993155135000,0.500135009765625,1.5407600402832031,0.03269004821777344,-0.13144230842590332
1716403993165236200,0.510236328125,1.420379638671875,0.07081794738769531,0.08948487043380737
1716403993175337700,0.520337646484375,0.6238107681274414,-0.17490482330322266,0.051205992698669434
1716403993185469400,0.530469482421875,-0.14686203002929688,-0.3858790397644043,-0.0855455994606018
1716403993195570700,0.54057080078125,-0.20004749298095703,-0.37108421325683594,-0.3286588191986084
1716403993205702700,0.55070263671875,-0.12521076202392578,-0.26641368865966797,-0.3491126298904419
1716403993215804000,0.560803955078125,0.045584678649902344,-0.13710737228393555,-0.1974177360534668
1716403993225936000,0.570935791015625,-0.05023908615112305,-0.031116962432861328,0.03944200277328491
1716403993236037000,0.581037109375,-0.26023387908935547,0.06737470626831055,0.13945120573043823
1716403993246168800,0.5911689453125,-0.5090188980102539,0.10565042495727539,0.16539835929870605
1716403993256270300,0.601270263671875,-0.3592853546142578,0.29567480087280273,0.15885627269744873
1716403993266402000,0.611402099609375,0.004706859588623047,0.3939657211303711,0.23860466480255127
1716403993276503300,0.62150341796875,0.19748973846435547,0.40225791931152344,0.39868927001953125
1716403993286635300,0.63163525390625,0.025273799896240234,0.23534631729125977,0.4313328266143799
1716403993296767000,0.64176708984375,-0.36588048934936523,0.005121707916259766,0.27785563468933105
1716403993306868500,0.651868408203125,-0.7670230865478516,-0.18794631958007812,-0.038140177726745605
1716403993317000200,0.662000244140625,-1.0017614364624023,-0.3228440284729004,-0.33241260051727295
1716403993327132200,0.672132080078125,-1.0976271629333496,-0.31752920150756836,-0.4742833375930786
1716403993337233400,0.6822333984375,-1.1127071380615234,-0.26490116119384766,-0.5290785431861877
1716403993347365000,0.692365234375,-1.0379939079284668,-0.24492597579956055,-0.5553269982337952
1716403993357497000,0.7024970703125,-0.9271135330200195,-0.27338647842407227,-0.5497834086418152
1716403993367598300,0.712598388671875,-0.631556510925293,-0.30590152740478516,-0.5569710731506348
1716403993377730300,0.722730224609375,-0.22571086883544922,-0.3118457794189453,-0.5844504833221436
1716403993387862000,0.732862060546875,0.03428173065185547,-0.35337114334106445,-0.5375868678092957
1716403993397994000,0.742993896484375,0.11501121520996094,-0.34926700592041016,-0.4896751642227173
1716403993408095200,0.75309521484375,0.027297019958496094,-0.32239770889282227,-0.46854859590530396
1716403993418227000,0.76322705078125,-0.23580074310302734,-0.251492977142334,-0.4103817939758301
1716403993428359000,0.77335888671875,-0.5038003921508789,-0.10407495498657227,-0.3152715563774109
1716403993438490600,0.78349072265625,-0.6544094085693359,0.046414852142333984,-0.2421695590019226
1716403993448622600,0.79362255859375,-0.6749701499938965,0.0702657699584961,-0.13359683752059937
1716403993458754300,0.80375439453125,-0.5041170120239258,-0.018623828887939453,-0.12608611583709717
1716403993468855800,0.813855712890625,-0.1692180633544922,-0.15203094482421875,-0.23429644107818604
1716403993478987500,0.823987548828125,0.20240211486816406,-0.18615961074829102,-0.40606606006622314
1716403993489119500,0.834119384765625,0.4423670768737793,-0.13219165802001953,-0.5009494423866272
1716403993499251200,0.844251220703125,0.45888710021972656,-0.00852060317993164,-0.43293559551239014
1716403993509383200,0.854383056640625,0.46090269088745117,0.08710241317749023,-0.2974492311477661
1716403993519515000,0.864514892578125,0.48204851150512695,0.14295387268066406,-0.2070854902267456
1716403993529646800,0.874646728515625,0.4754047393798828,0.19660186767578125,-0.17416822910308838
1716403993539778600,0.884778564453125,0.24366331100463867,0.25452280044555664,-0.18907219171524048
1716403993549879800,0.8948798828125,-0.16153860092163086,0.2878117561340332,-0.13755124807357788
1716403993560011800,0.90501171875,-0.4923858642578125,0.3119163513183594,-0.007210671901702881
1716403993570143500,0.9151435546875,-0.3934006690979004,0.32759904861450195,0.16604167222976685
1716403993580275500,0.925275390625,-0.08172798156738281,0.26439809799194336,0.3045514225959778
1716403993590407200,0.9354072265625,0.22489404678344727,0.1602020263671875,0.3969901204109192
1716403993600539100,0.9455390625,0.41159725189208984,0.1796860694885254,0.35120147466659546
1716403993610670800,0.9556708984375,0.37357568740844727,0.11555147171020508,0.1763467788696289
1716403993620802800,0.965802734375,0.3349275588989258,0.0718994140625,-0.03633207082748413
1716403993630934500,0.9759345703125,0.2353649139404297,0.000030040740966796875,-0.2314395308494568
1716403993641066500,0.98606640625,-0.10620403289794922,-0.11871814727783203,-0.39253008365631104
1716403993651198200,0.9961982421875,-0.39215517044067383,-0.09272241592407227,-0.5123531222343445
1716403993661299500,1.006299560546875,-0.5090746879577637,-0.02084493637084961,-0.5485166907310486
1716403993671431400,1.016431396484375,-0.2750520706176758,-0.01408529281616211,-0.4148291349411011
1716403993681563100,1.026563232421875,0.29075098037719727,-0.005199432373046875,-0.23241233825683594
1716403993691695000,1.036695068359375,0.6684131622314453,-0.032982826232910156,-0.15743321180343628
1716403993701826800,1.046826904296875,0.7390007972717285,-0.03537321090698242,-0.09385305643081665
1716403993711958800,1.056958740234375,0.6562376022338867,-0.018559932708740234,-0.1563541293144226
1716403993722090500,1.067090576171875,0.38371944427490234,-0.0035758018493652344,-0.2838901877403259
1716403993732222500,1.077222412109375,0.03586530685424805,0.006705284118652344,-0.3415471315383911
1716403993742354200,1.087354248046875,-0.3036775588989258,0.005759716033935547,-0.3597998023033142
1716403993752486100,1.097486083984375,-0.4290008544921875,0.04615640640258789,-0.3913728594779968
1716403993762617900,1.107617919921875,-0.3051471710205078,0.09021186828613281,-0.38805830478668213
1716403993772749800,1.117749755859375,-0.0901951789855957,0.1413707733154297,-0.2531009912490845
1716403993782881500,1.127881591796875,0.13568878173828125,0.16948843002319336,-0.07432878017425537
1716403993793013500,1.138013427734375,0.41220664978027344,0.19626379013061523,-0.0004690885543823242
1716403993803114800,1.14811474609375,0.4604511260986328,0.23429298400878906,0.01913166046142578
1716403993813246500,1.15824658203125,0.25659751892089844,0.23395061492919922,0.0027021169662475586
1716403993823378400,1.16837841796875,0.034418582916259766,0.17110872268676758,0.027568578720092773
1716403993833510100,1.17851025390625,0.09972715377807617,0.13454008102416992,0.10740137100219727
1716403993843642000,1.18864208984375,0.29149818420410156,0.2033524513244629,0.22477281093597412
1716403993853773800,1.19877392578125,0.37149810791015625,0.23845767974853516,0.2387964129447937
1716403993863905800,1.20890576171875,0.3009510040283203,0.24682378768920898,0.18115878105163574
1716403993874037500,1.21903759765625,0.09575557708740234,0.20017671585083008,0.08672213554382324
1716403993884169500,1.22916943359375,-0.22696924209594727,0.10004091262817383,-0.11911684274673462
1716403993894301200,1.23930126953125,-0.5870518684387207,0.02725076675415039,-0.28901737928390503
1716403993904433200,1.24943310546875,-0.8199844360351562,-0.01868152618408203,-0.3888745903968811
1716403993914564900,1.25956494140625,-0.8426203727722168,-0.1247248649597168,-0.3946338891983032
1716403993924696800,1.26969677734375,-0.680443286895752,-0.20748376846313477,-0.2556852102279663
1716403993934828500,1.27982861328125,-0.39606714248657227,-0.1496291160583496,-0.15844416618347168
1716403993944960500,1.28996044921875,-0.2861166000366211,-0.029889583587646484,-0.11541628837585449
1716403993955092200,1.30009228515625,-0.41942262649536133,0.06737422943115234,-0.036868929862976074
1716403993965224200,1.31022412109375,-0.5184693336486816,0.009716510772705078,-0.0592043399810791
1716403993975356000,1.32035595703125,-0.44100522994995117,-0.0923151969909668,-0.1361902356147766
1716403993985488000,1.33048779296875,-0.2547111511230469,-0.26972341537475586,-0.27000266313552856
1716403993995619600,1.34061962890625,-0.2958369255065918,-0.4026355743408203,-0.4448624849319458
1716403994005751600,1.35075146484375,-0.5922555923461914,-0.25937938690185547,-0.5188090801239014
1716403994015883300,1.36088330078125,-0.9444198608398438,-0.10123348236083984,-0.4479292035102844
1716403994026015200,1.37101513671875,-1.2424507141113281,-0.17520713806152344,-0.24570101499557495
1716403994036147000,1.38114697265625,-1.140212059020996,-0.5522851943969727,-0.21338045597076416
1716403994046279000,1.39127880859375,-0.5155715942382812,-0.7304525375366211,-0.4039255380630493
1716403994056410600,1.40141064453125,-0.014505863189697266,-0.5071163177490234,-0.27962660789489746
1716403994066542600,1.41154248046875,0.2619185447692871,0.012141704559326172,0.14464175701141357
1716403994076674300,1.42167431640625,0.439633846282959,0.5550937652587891,0.9020484685897827
1716403994086806300,1.43180615234375,0.3460841178894043,0.9229907989501953,1.631561517715454
1716403994096938000,1.44193798828125,0.07677888870239258,1.0014762878417969,1.8290207386016846
1716403994107069700,1.452069580078125,-0.3261680603027344,0.8753952980041504,1.533799648284912
1716403994117201700,1.46220166015625,-1.0548310279846191,0.6711044311523438,1.0549423694610596
1716403994127333400,1.47233349609375,-2.0446572303771973,0.4143333435058594,0.7575858235359192
1716403994137465300,1.48246533203125,-2.7556915283203125,0.3677377700805664,0.600013017654419
1716403994147597000,1.49259716796875,-2.74092960357666,0.511566162109375,0.4702937602996826
1716403994157729000,1.50272900390625,-2.0253453254699707,0.6348857879638672,0.5096131563186646
1716403994167860700,1.51286083984375,-1.4321060180664062,0.6149177551269531,0.6599797010421753
1716403994177992700,1.52299267578125,-1.2143797874450684,0.5085659027099609,0.6435360908508301
1716403994188124400,1.53312451171875,-1.3480710983276367,0.3646402359008789,0.3270605802536011
1716403994198256400,1.54325634765625,-1.6187982559204102,0.1984419822692871,0.08866667747497559
1716403994208388000,1.55338818359375,-1.906522274017334,0.11060762405395508,-0.0914146900177002
1716403994218520000,1.56352001953125,-1.8614616394042969,0.022771835327148438,-0.009075403213500977
1716403994228651800,1.57365185546875,-1.2380471229553223,0.1530447006225586,0.08228731155395508
1716403994238783700,1.58378369140625,-0.45317649841308594,0.3436250686645508,0.20330893993377686
1716403994248915500,1.59391552734375,-0.06446123123168945,0.5369906425476074,0.42386043071746826
1716403994259047400,1.60404736328125,0.31183290481567383,0.6272602081298828,0.40392374992370605
1716403994269179100,1.61417919921875,0.387636661529541,0.5840401649475098,0.16006672382354736
1716403994279311000,1.62431103515625,0.35425662994384766,0.538121223449707,0.08173835277557373
1716403994289442800,1.63444287109375,0.35706186294555664,0.4875326156616211,0.008063197135925293
1716403994299574800,1.64457470703125,0.3474111557006836,0.2877073287963867,0.0454096794128418
1716403994309706500,1.65470654296875,0.1825275421142578,-0.00551605224609375,-0.04720008373260498
1716403994319838500,1.66483837890625,0.06660223007202148,-0.2856874465942383,0.041860103607177734
1716403994329970200,1.67497021484375,-0.20853281021118164,-0.23841571807861328,-0.30704057216644287
1716403994340102100,1.68510205078125,-0.9686727523803711,-0.09872961044311523,-0.5134373903274536
1716403994350233900,1.69523388671875,-1.725843906402588,-0.038553714752197266,-0.6636861562728882
1716403994360365800,1.70536572265625,-2.499378204345703,-0.01307821273803711,-1.015623927116394
1716403994370497500,1.71549755859375,-2.4620518684387207,-0.10253000259399414,-1.513019323348999
1716403994380629500,1.72562939453125,-1.6182832717895508,-0.46404075622558594,-1.9287731647491455
1716403994390730800,1.735730712890625,-2.625089168548584,-1.0547094345092773,-2.3418498039245605
1716403994400862500,1.745862548828125,-6.322576999664307,-0.778745174407959,-2.5766873359680176
1716403994410994400,1.755994384765625,-7.53606653213501,-0.48077392578125,-2.2032597064971924
1716403994421126100,1.766126220703125,-5.240044593811035,-2.075981616973877,-3.1589877605438232
1716403994431258000,1.776258056640625,-1.4837040901184082,-3.444288730621338,-3.8656139373779297
1716403994441389800,1.786389892578125,1.0290741920471191,-3.758988857269287,-3.7382123470306396
1716403994451521800,1.796521728515625,1.0986480712890625,-3.347115993499756,-1.522181749343872
1716403994461653500,1.806653564453125,1.2595305442810059,-2.802133083343506,-1.915726661682129
1716403994471785500,1.816785400390625,2.340083122253418,-1.21333646774292,2.104837417602539
1716403994481917200,1.826917236328125,-0.11164093017578125,0.25130605697631836,4.771387577056885
1716403994492049200,1.837049072265625,-4.212316036224365,-0.4296436309814453,3.8962745666503906
1716403994502180900,1.847180908203125,-8.567913055419922,-2.6371712684631348,1.5033354759216309
1716403994512312800,1.857312744140625,-9.48855972290039,-3.961440086364746,-3.774592399597168
1716403994522444500,1.867444580078125,-7.4163289070129395,-4.115335941314697,-3.460153102874756
1716403994532576500,1.877576416015625,-5.650339126586914,-3.3397483825683594,-3.6175484657287598
1716403994542708200,1.887708251953125,-5.182332992553711,-2.182480812072754,-2.3478541374206543
1716403994552840200,1.897840087890625,-5.131211280822754,-1.2972478866577148,-0.4175419807434082
1716403994562972000,1.907971923828125,-5.243299961090088,-1.8677306175231934,1.1973509788513184
1716403994573103900,1.918103759765625,-4.086873531341553,-7.543211460113525,1.1348905563354492
1716403994583235600,1.928235595703125,1.6300272941589355,-5.050234794616699,-2.845444679260254
1716403994593367600,1.938367431640625,2.881427764892578,6.7333879470825195,-1.408066749572754
1716403994603499300,1.948499267578125,0.6327943801879883,0.9273114204406738,6.895091533660889
1716403994613631000,1.958630859375,-2.8476991653442383,-6.096914768218994,-4.679553508758545
1716403994623763000,1.968762939453125,-6.059502124786377,-4.7187042236328125,-4.088655948638916
1716403994633894700,1.978894775390625,-6.461737155914307,-4.388870716094971,-4.348259925842285
1716403994644026600,1.989026611328125,-4.338014602661133,-6.281424522399902,-3.0143890380859375
1716403994654158300,1.999158447265625,-2.890134572982788,-4.893193244934082,-2.5738348960876465
1716403994664290300,2.009290283203125,-3.22369122505188,-2.279153347015381,-0.30071163177490234
1716403994674422000,2.019422119140625,-2.314591646194458,-1.8568127155303955,3.604419708251953
1716403994684554000,2.029553955078125,-0.4625047445297241,-3.544771194458008,5.444313049316406
1716403994694685700,2.039685791015625,1.287602424621582,-5.483822822570801,5.0677947998046875
1716403994704817700,2.049817626953125,3.7156457901000977,-6.687137126922607,3.9588794708251953
1716403994714949400,2.059949462890625,5.972113132476807,-7.02894401550293,3.123708724975586
1716403994725081300,2.070081298828125,9.483375549316406,-6.513041973114014,3.046675682067871
1716403994735213000,2.080213134765625,12.053608894348145,-6.3055925369262695,3.423699378967285
1716403994745345000,2.090344970703125,11.9977388381958,-5.4556355476379395,3.813505172729492
1716403994755476700,2.100476806640625,9.662353515625,-4.093138694763184,5.052092552185059
1716403994765608700,2.110608642578125,5.388767242431641,-2.2571611404418945,7.726731300354004
1716403994775740400,2.120740478515625,2.4193849563598633,-1.3335453271865845,10.264825820922852
1716403994785872400,2.130872314453125,1.31584894657135,-1.3271358013153076,11.208318710327148
1716403994796004000,2.141004150390625,2.2002100944519043,-1.6448419094085693,10.662130355834961
1716403994806136000,2.151135986328125,4.045458793640137,-1.6976420879364014,8.973657608032227
1716403994816267800,2.161267822265625,5.482630729675293,-1.7825067043304443,7.5125274658203125
1716403994826399700,2.171399658203125,6.977381706237793,-1.5353577136993408,6.565185546875
1716403994836531500,2.181531494140625,7.448974609375,-0.3081192970275879,7.506631851196289
1716403994846663400,2.191663330078125,6.356902122497559,0.6244068145751953,9.510031700134277
1716403994856795100,2.201795166015625,5.247165679931641,1.4267733097076416,10.539642333984375
1716403994866927000,2.211927001953125,3.6925628185272217,2.760457992553711,11.201624870300293
1716403994877058800,2.222058837890625,0.8077073097229004,4.502603054046631,11.837909698486328
1716403994887190800,2.232190673828125,-1.6863267421722412,5.226916313171387,12.102432250976562
1716403994897322500,2.242322509765625,-2.548454523086548,5.315491199493408,11.440763473510742
1716403994907454500,2.252454345703125,-3.296476364135742,5.505554676055908,10.738986015319824
1716403994917586200,2.262586181640625,-4.537112236022949,4.507112979888916,9.837814331054688
1716403994927718000,2.2727177734375,-4.996996879577637,3.441920757293701,7.652709484100342
1716403994937849900,2.282849853515625,-4.859196662902832,2.7241158485412598,5.51089334487915
1716403994947981600,2.292981689453125,-2.8102071285247803,2.9551663398742676,3.8275890350341797
1716403994958113500,2.303113525390625,-0.5734145641326904,3.97512149810791,4.598085403442383
1716403994968245200,2.313245361328125,-0.16176247596740723,4.289217472076416,5.850571632385254
1716403994978377200,2.323377197265625,-0.7731046676635742,3.893890380859375,6.303709506988525
1716403994988509000,2.333509033203125,-1.6245203018188477,3.372854232788086,5.994102478027344
1716403994998641000,2.343640869140625,-2.3615612983703613,2.5049283504486084,5.320065498352051
1716403995008772600,2.353772705078125,-2.1495466232299805,1.4996004104614258,4.008613109588623
1716403995018904600,2.363904541015625,-0.8235964775085449,0.9889659881591797,2.508711338043213
1716403995029036300,2.374036376953125,0.3339080810546875,1.0572571754455566,1.6220641136169434
1716403995039168300,2.384168212890625,0.6604390144348145,1.2278094291687012,1.5878911018371582
1716403995049300000,2.394300048828125,0.9101371765136719,1.0819196701049805,1.6976733207702637
1716403995059432000,2.404431884765625,1.4831633567810059,0.6223080158233643,1.598503589630127
1716403995069563600,2.414563720703125,2.564910888671875,0.22973370552062988,1.3000798225402832
1716403995079695600,2.424695556640625,3.770171642303467,-0.04905390739440918,0.7686500549316406
1716403995089827300,2.434827392578125,4.58042049407959,-0.4471113681793213,0.5133495330810547
1716403995099959300,2.444959228515625,4.1575446128845215,-1.070746898651123,0.2833681106567383
1716403995110091000,2.455091064453125,2.9598097801208496,-1.548978567123413,-0.26743173599243164
1716403995120223000,2.465222900390625,1.6903038024902344,-1.5882201194763184,-1.1172089576721191
1716403995130354700,2.475354736328125,-0.004709720611572266,-1.185246467590332,-1.5548276901245117
1716403995140456000,2.4854560546875,-1.4958429336547852,-0.6788027286529541,-1.4844155311584473
1716403995150588000,2.495587890625,-2.484894275665283,-0.48694729804992676,-1.4160361289978027
1716403995160719600,2.5057197265625,-3.311241626739502,-0.6506950855255127,-2.094879150390625
1716403995170851600,2.5158515625,-4.020119667053223,-0.8833973407745361,-2.378164768218994
1716403995180983300,2.5259833984375,-4.0605010986328125,-0.9912433624267578,-2.3856139183044434
1716403995191115300,2.536115234375,-3.8742198944091797,-1.0430068969726562,-2.306743621826172
1716403995201247000,2.5462470703125,-3.6410531997680664,-1.0119478702545166,-2.2257065773010254
1716403995211379000,2.55637890625,-3.6050615310668945,-1.0054161548614502,-2.124366283416748
1716403995221510700,2.5665107421875,-4.062528610229492,-1.1796865463256836,-2.254179000854492
1716403995231642600,2.576642578125,-4.880297660827637,-1.458186388015747,-2.612109661102295
1716403995241774300,2.5867744140625,-5.518162727355957,-1.8372840881347656,-2.958463668823242
1716403995251906300,2.59690625,-6.1500244140625,-2.3571763038635254,-3.2732043266296387
1716403995262038000,2.6070380859375,-6.786413192749023,-2.8751108646392822,-3.667727470397949
1716403995272170000,2.617169921875,-6.777485370635986,-3.4114434719085693,-4.033976078033447
1716403995282301700,2.6273017578125,-6.288495063781738,-4.573385715484619,-4.527135848999023
1716403995292433700,2.63743359375,-6.217604160308838,-5.551719665527344,-5.060868740081787
1716403995302565400,2.6475654296875,-6.014781475067139,-6.125513553619385,-5.561925411224365
1716403995312697300,2.657697265625,-5.937221527099609,-6.5449957847595215,-5.71823263168335
1716403995322829000,2.6678291015625,-5.585826873779297,-6.627676963806152,-5.6331610679626465
1716403995332961000,2.6779609375,-4.286706447601318,-6.306896209716797,-6.079339027404785
1716403995343092700,2.6880927734375,-2.350159168243408,-6.851806163787842,-6.511630535125732
1716403995353224700,2.698224609375,0.40827369689941406,-7.048557281494141,-3.966094493865967
1716403995363356400,2.7083564453125,3.605936050415039,-6.455038070678711,-1.3178577423095703
1716403995373488400,2.71848828125,4.462815284729004,-10.162078857421875,1.8131299018859863
1716403995383620000,2.7286201171875,6.192591667175293,-2.510244846343994,1.0623149871826172
1716403995393752000,2.738751953125,9.893869400024414,-2.794678211212158,9.24344539642334
1716403995403883800,2.7488837890625,10.366374969482422,-3.8062353134155273,11.767902374267578
1716403995414015700,2.759015625,8.904827117919922,-2.8610177040100098,9.510589599609375
1716403995424147500,2.7691474609375,7.134410858154297,-2.8998847007751465,10.86671257019043
1716403995434279200,2.779279052734375,5.720905303955078,-3.3870882987976074,12.11252212524414
1716403995444411100,2.7894111328125,3.5772533416748047,-3.6139955520629883,12.590751647949219
1716403995454542800,2.79954296875,0.3552405834197998,-1.7511944770812988,13.181550979614258
1716403995464674800,2.8096748046875,-4.617225646972656,1.1182560920715332,14.194717407226562
1716403995474806500,2.819806640625,-7.2985734939575195,1.2512354850769043,16.60150718688965
1716403995484938500,2.8299384765625,-9.217147827148438,0.0735478401184082,16.483510971069336
1716403995495070200,2.8400703125,-8.788875579833984,-1.6514310836791992,12.113065719604492
1716403995505202200,2.8502021484375,-5.879025459289551,-2.9573683738708496,7.331121921539307
1716403995515334000,2.860333984375,-0.19465255737304688,-3.8561301231384277,3.901817798614502
1716403995525465900,2.8704658203125,-4.275638103485107,-4.926579475402832,2.073611259460449
1716403995535597600,2.88059765625,-4.664758682250977,-4.026367664337158,-0.5006098747253418
1716403995545729500,2.8907294921875,0.6588542461395264,-4.185579776763916,-0.5925784111022949
1716403995555861200,2.900861328125,4.002089500427246,-1.9677553176879883,-0.15123319625854492
1716403995565993200,2.9109931640625,0.4279247522354126,-1.0110630989074707,0.04996299743652344
1716403995576125000,2.921125,-0.14840734004974365,-2.5493345260620117,-1.1684699058532715
1716403995586257000,2.9312568359375,7.728908538818359,-3.3214378356933594,-2.698444366455078
1716403995596388600,2.941388671875,2.332798719406128,-0.3140993118286133,-2.018585681915283
1716403995606520600,2.9515205078125,-7.465259552001953,0.0341033935546875,-3.0841288566589355
1716403995616652300,2.96165234375,-8.35805606842041,0.6595797538757324,-6.741815090179443
1716403995626784300,2.9717841796875,-4.208626747131348,1.0615220069885254,-6.74827241897583
1716403995636916000,2.981916015625,-0.9254945516586304,1.872067928314209,-4.9383392333984375
1716403995647048000,2.9920478515625,0.40483343601226807,2.7222533226013184,-4.002087593078613
1716403995657179600,3.0021796875,0.15432077646255493,3.7543506622314453,-3.5207080841064453
1716403995667311600,3.0123115234375,-0.7160324454307556,4.844223499298096,-2.910841464996338
1716403995677443300,3.022443359375,-0.2364131212234497,5.776259899139404,-2.1967968940734863
1716403995687575300,3.0325751953125,-0.13255095481872559,6.318008899688721,-0.8468284606933594
1716403995697707000,3.04270703125,-0.4501256048679352,6.107794761657715,-0.5672564506530762
1716403995707839000,3.0528388671875,-0.489104300737381,4.742539882659912,-5.209418773651123
1716403995717970700,3.062970703125,-0.014813616871833801,3.6818490028381348,-7.870275020599365
1716403995728102700,3.0731025390625,-1.4491357803344727,3.541168689727783,-9.214059829711914
1716403995738234400,3.083234375,-3.1332430839538574,3.45704984664917,-9.261690139770508
1716403995748366000,3.093365966796875,-2.5385241508483887,3.276811122894287,-7.3451714515686035
1716403995758498000,3.103498046875,-2.3060078620910645,3.3170547485351562,-5.464306831359863
1716403995768629800,3.113629638671875,-3.3619234561920166,3.152675151824951,-5.284477233886719
1716403995778761700,3.12376171875,-3.3086018562316895,3.066981792449951,-3.9461817741394043
1716403995788893400,3.1338935546875,-3.4149892330169678,1.651848316192627,-1.2340927124023438
1716403995799025400,3.144025390625,-2.473071575164795,0.5656986236572266,-0.5213422775268555
1716403995809157000,3.1541572265625,-1.85634446144104,2.185880661010742,0.44800853729248047
1716403995819289000,3.1642890625,2.3686277866363525,2.5181026458740234,1.9411559104919434
1716403995829420800,3.1744208984375,0.03432655334472656,0.7948307991027832,7.353540420532227
1716403995839552800,3.184552734375,-0.6985962390899658,0.22524785995483398,9.748626708984375
1716403995849684500,3.1946845703125,-2.6164159774780273,0.5455727577209473,4.747529029846191
1716403995859816400,3.20481640625,-3.574516534805298,1.6111783981323242,-1.1850028038024902
1716403995869948200,3.2149482421875,-2.8873164653778076,-0.01162576675415039,-2.726533889770508
1716403995880080100,3.225080078125,1.1518645286560059,-0.7181854248046875,-1.5995712280273438
1716403995890181400,3.235181396484375,7.165432929992676,-0.7566828727722168,-1.171478271484375
1716403995900313300,3.245313232421875,4.276400566101074,-2.2084403038024902,-2.0518007278442383
1716403995910445000,3.255445068359375,1.593961238861084,-1.377352237701416,0.2466907501220703
1716403995920577000,3.265576904296875,1.8768184185028076,1.546776294708252,2.0242233276367188
1716403995930708700,3.275708740234375,-0.18814969062805176,1.5014653205871582,2.31955623626709
1716403995940840400,3.28584033203125,-1.633002519607544,-0.18827581405639648,2.845384120941162
1716403995950972400,3.295972412109375,-0.8503730297088623,0.11797428131103516,0.7096757888793945
1716403995961104100,3.306104248046875,0.9623761177062988,-0.10371112823486328,-0.5826430320739746
1716403995971236000,3.316236083984375,3.8093087673187256,1.0566554069519043,-0.7264409065246582
1716403995981367800,3.326367919921875,3.744105339050293,1.4495148658752441,0.05019712448120117
1716403995991499800,3.336499755859375,-3.1870014667510986,-2.1088595390319824,0.8484549522399902
1716403996001631500,3.346631591796875,-5.768278121948242,-6.156847953796387,-3.8458452224731445
1716403996011763500,3.356763427734375,-2.3811087608337402,-8.595337867736816,-4.104458332061768
1716403996021895200,3.366895263671875,4.399374008178711,-6.1244378089904785,-4.015075206756592
1716403996032027100,3.377027099609375,7.214489936828613,-3.3197216987609863,-2.0053367614746094
1716403996042158800,3.387158935546875,6.947773456573486,-1.8752374649047852,0.7920312881469727
1716403996052290800,3.397290771484375,1.6737582683563232,-1.4270563125610352,3.307162284851074
1716403996062422500,3.407422607421875,-3.1716132164001465,-1.0246267318725586,2.7306771278381348
1716403996072554500,3.417554443359375,-4.592628002166748,-1.7701029777526855,1.591517448425293
1716403996082686200,3.427686279296875,-3.4189085960388184,-2.380875587463379,-3.6320509910583496
1716403996092818200,3.437818115234375,-1.6828656196594238,-2.6726341247558594,-5.068736553192139
1716403996102950000,3.447949951171875,-0.8832821846008301,-1.4678468704223633,-4.356130599975586
1716403996113081900,3.458081787109375,0.662659764289856,2.325498580932617,-4.286111831665039
1716403996123213600,3.468213623046875,0.34418338537216187,0.46846580505371094,-3.5178966522216797
1716403996133345500,3.478345458984375,0.3714973032474518,-4.35536003112793,-5.88562536239624
1716403996143477200,3.488477294921875,2.4325666427612305,-6.102487564086914,-3.4015402793884277
1716403996153609200,3.498609130859375,2.738269805908203,-3.695408821105957,-3.2836742401123047
1716403996163741000,3.508740966796875,0.8780958652496338,-1.1347370147705078,0.6485500335693359
1716403996173873000,3.518872802734375,1.5792399644851685,-0.3747854232788086,-3.447877883911133
1716403996184004600,3.529004638671875,1.3812792301177979,-0.7529401779174805,-3.634603977203369
1716403996194136600,3.539136474609375,0.727263867855072,-0.7280292510986328,-1.6902203559875488
1716403996204268300,3.549268310546875,0.9455807209014893,-0.6686382293701172,-1.561213493347168
1716403996214400300,3.559400146484375,1.6726667881011963,0.050777435302734375,-1.5039525032043457
1716403996224532000,3.569531982421875,1.2512140274047852,0.6270809173583984,-1.8119921684265137
1716403996234664000,3.579663818359375,0.3480328917503357,0.556645393371582,-2.9579696655273438
1716403996244795600,3.589795654296875,0.06075334548950195,0.40252113342285156,-3.5571439266204834
1716403996254927400,3.59992724609375,0.16519755125045776,-0.026688575744628906,-3.3199687004089355
1716403996265059300,3.610059326171875,2.9851675033569336,-1.0168390274047852,-2.4326817989349365
1716403996275191000,3.62019091796875,3.1377532482147217,-4.562294960021973,-2.0872530937194824
1716403996285323000,3.630322998046875,2.3100569248199463,-6.859593391418457,-3.0474724769592285
1716403996295454700,3.640454833984375,2.151655673980713,-5.880507469177246,-2.7487714290618896
1716403996305586700,3.650586669921875,1.1825610399246216,-3.95388126373291,-2.291638135910034
1716403996315718400,3.660718505859375,1.2455590963363647,-3.749852180480957,-1.0785026550292969
1716403996325850400,3.670850341796875,1.213895559310913,-4.328344345092773,-0.8693563938140869
1716403996335982000,3.680982177734375,0.7050378322601318,-5.6015625,-0.9113942384719849
1716403996346114000,3.691114013671875,-0.16570532321929932,-6.436276435852051,0.6192176342010498
1716403996356245800,3.701245849609375,-0.576818585395813,-4.754026412963867,0.9595587849617004
1716403996366377700,3.711377685546875,-1.539210557937622,-2.312620162963867,3.70650577545166
1716403996376509400,3.721509521484375,-3.2086074352264404,-0.2641487121582031,6.282089710235596
1716403996386641400,3.731641357421875,-4.223318576812744,0.12362957000732422,6.607215881347656
1716403996396773000,3.741773193359375,-2.320587635040283,-0.18770122528076172,5.937556266784668
1716403996406905000,3.751905029296875,-0.4285370111465454,-0.9585466384887695,5.297499656677246
1716403996417036800,3.762036865234375,0.1268765926361084,-0.7974977493286133,4.266426086425781
1716403996427168800,3.772168701171875,0.744328498840332,-0.18646526336669922,3.5545971393585205
1716403996437300500,3.782300537109375,0.8978854417800903,0.6279087066650391,3.2628138065338135
1716403996447432400,3.792432373046875,1.4505257606506348,1.3859453201293945,3.348548173904419
1716403996457564200,3.802564208984375,2.0464534759521484,1.966517448425293,3.4528145790100098
1716403996467696000,3.812696044921875,2.418095827102661,2.4037857055664062,2.957353353500366
1716403996477827800,3.822827880859375,1.9842044115066528,2.626584053039551,2.4187259674072266
1716403996487959800,3.832959716796875,1.1380738019943237,2.6192169189453125,2.0642080307006836
1716403996498091500,3.843091552734375,0.9829014539718628,2.477961540222168,1.8194613456726074
1716403996508223500,3.853223388671875,0.6733511686325073,2.3411951065063477,1.640817642211914
1716403996518355200,3.863355224609375,0.0503423810005188,1.9631738662719727,1.169848084449768
1716403996528487200,3.873487060546875,-0.5594085454940796,1.3233461380004883,0.8555347919464111
1716403996538619000,3.883618896484375,-1.149505615234375,0.4920053482055664,1.0750353336334229
1716403996548750800,3.893750732421875,-1.3559074401855469,-0.045207977294921875,1.5877203941345215
1716403996558882600,3.903882568359375,-1.2042275667190552,-0.04571533203125,1.8508861064910889
1716403996569014300,3.91401416015625,-0.9958896040916443,0.204376220703125,1.6595001220703125
1716403996579146200,3.924146240234375,-0.5161117315292358,0.6896905899047852,1.8083382844924927
1716403996589278000,3.93427783203125,0.048719584941864014,1.1183977127075195,2.2303590774536133
1716403996599410000,3.944409912109375,0.5572651028633118,1.2089128494262695,1.410475730895996
1716403996609541600,3.954541748046875,0.13615256547927856,0.3106966018676758,0.39267951250076294
1716403996619673600,3.964673583984375,-0.24036401510238647,-1.0527124404907227,-1.4078515768051147
1716403996629805300,3.974805419921875,-0.9624314308166504,-1.9970808029174805,-2.8648765087127686
1716403996639937300,3.984937255859375,-1.9752538204193115,-2.5882558822631836,-3.394726276397705
1716403996650069000,3.995069091796875,-1.6105115413665771,-3.3641977310180664,-2.839745283126831
1716403996660201000,4.005200927734375,-0.4840388298034668,-4.9143877029418945,-1.805417776107788
1716403996670302200,4.01530224609375,0.07707935571670532,-6.865269660949707,-1.5812788009643555
1716403996680434200,4.02543408203125,-0.1743207573890686,-8.379040718078613,-1.6823539733886719
1716403996690566000,4.03556591796875,-0.26023203134536743,-9.064699172973633,-1.8911296129226685
1716403996700697900,4.04569775390625,-0.42239779233932495,-9.076271057128906,-2.280702590942383
1716403996710829600,4.05582958984375,-0.2952391505241394,-8.924702644348145,-1.92280912399292
1716403996720961500,4.06596142578125,-0.3742821216583252,-8.311359405517578,-1.0454319715499878
1716403996731093200,4.07609326171875,-0.5117015838623047,-7.001185417175293,-0.1310664415359497
1716403996741225200,4.08622509765625,1.5171399116516113,-6.264334678649902,0.9399406909942627
1716403996751357000,4.09635693359375,0.06873476505279541,-5.150256156921387,1.575449824333191
1716403996761488600,4.106488525390625,-7.104567527770996,-3.484551429748535,1.684570074081421
1716403996771620600,4.11662060546875,-1.803844690322876,-2.701923370361328,3.217698812484741
1716403996781752300,4.12675244140625,-3.143275499343872,-0.9504203796386719,3.127218246459961
1716403996791884300,4.13688427734375,-3.9799962043762207,0.5837182998657227,3.652296543121338
1716403996802016000,4.14701611328125,-3.4296071529388428,0.9295759201049805,3.5137486457824707
1716403996812148000,4.15714794921875,-2.4914369583129883,1.3582239151000977,4.152593612670898
1716403996822279700,4.16727978515625,-1.9849467277526855,1.4550971984863281,4.131494045257568
1716403996832411600,4.17741162109375,-2.125941753387451,1.3387823104858398,2.8489668369293213
1716403996842543400,4.18754345703125,-2.5611979961395264,0.028894424438476562,1.0613603591918945
1716403996852675300,4.19767529296875,-0.8699042797088623,-0.9918956756591797,0.8490211963653564
1716403996862807000,4.20780712890625,2.116166353225708,-0.7848672866821289,1.9752751588821411
1716403996872939000,4.21793896484375,3.1656508445739746,0.6562385559082031,1.8926331996917725
1716403996883070700,4.22807080078125,2.388141632080078,1.6211042404174805,4.658891677856445
1716403996893202700,4.23820263671875,2.3913686275482178,1.3760623931884766,5.540563106536865
1716403996903334400,4.24833447265625,1.6655662059783936,0.571070671081543,2.4529495239257812
1716403996913466400,4.25846630859375,1.4399030208587646,-0.5356454849243164,1.4649105072021484
1716403996923598000,4.26859814453125,0.9872816801071167,-1.7718734741210938,0.3614676892757416
1716403996933730000,4.27872998046875,-0.7858970761299133,-2.5402584075927734,-0.05814601853489876
1716403996943861800,4.28886181640625,-3.0409417152404785,-2.2869482040405273,0.036526963114738464
1716403996953993700,4.29899365234375,-4.526418209075928,-1.983717918395996,-0.5389466285705566
1716403996964125400,4.30912548828125,-5.243326187133789,-2.172879219055176,-1.228247046470642
1716403996974257400,4.31925732421875,-4.896016597747803,-2.2683496475219727,0.35839080810546875
1716403996984389000,4.32938916015625,5.0336503982543945,-2.8204479217529297,0.20732420682907104
1716403996994521000,4.33952099609375,3.4416801929473877,-3.71993350982666,7.847715854644775
1716403997004652800,4.34965283203125,0.1026361882686615,-3.633267402648926,7.478892803192139
1716403997014784800,4.35978466796875,-0.7130316495895386,-4.360576629638672,5.996111869812012
1716403997024916500,4.36991650390625,-3.131326913833618,-4.919236183166504,4.643522262573242
1716403997035048400,4.38004833984375,-1.7842285633087158,-5.253209114074707,3.044339179992676
1716403997045180200,4.39018017578125,1.0237009525299072,-5.626981735229492,1.760972023010254
1716403997055312100,4.40031201171875,3.4647140502929688,-5.880964279174805,-1.934941291809082
1716403997065443800,4.41044384765625,4.087723255157471,-5.0691680908203125,-4.405026435852051
1716403997075575600,4.420575439453125,4.364752769470215,-4.103431701660156,-6.786768913269043
1716403997085707500,4.43070751953125,4.413619041442871,-2.7101612091064453,-6.934419631958008
1716403997095839200,4.440839111328125,5.110151290893555,-1.1986970901489258,-6.399906158447266
1716403997105971200,4.45097119140625,5.404922008514404,-0.5097818374633789,-5.940391540527344
1716403997116103000,4.46110302734375,3.721684217453003,0.02050018310546875,-5.083211898803711
1716403997126235000,4.47123486328125,2.8484678268432617,0.6642179489135742,-4.0703582763671875
1716403997136366600,4.48136669921875,2.5594847202301025,1.5247039794921875,-4.042918682098389
1716403997146498600,4.49149853515625,2.8792169094085693,2.4150619506835938,-4.8645219802856445
1716403997156630300,4.50163037109375,2.8466153144836426,3.1999387741088867,-5.467398166656494
1716403997166762200,4.51176220703125,2.2890961170196533,3.5040054321289062,-5.776675224304199
1716403997176894000,4.52189404296875,1.541541576385498,3.4590048789978027,-5.460248947143555
1716403997187026000,4.53202587890625,1.461979627609253,3.3620195388793945,-5.759895324707031
1716403997197157600,4.54215771484375,1.4932188987731934,3.4475088119506836,-6.530953407287598
1716403997207289600,4.55228955078125,1.8071770668029785,3.461287498474121,-7.048769474029541
1716403997217421300,4.56242138671875,2.3535006046295166,3.4525656700134277,-7.213310718536377
1716403997227553300,4.57255322265625,2.8050074577331543,3.6327333450317383,-7.157148361206055
1716403997237685000,4.58268505859375,2.9900941848754883,3.8883399963378906,-6.845447540283203
1716403997247817000,4.59281689453125,3.103048801422119,4.091076850891113,-6.345005512237549
1716403997257948700,4.60294873046875,3.0795154571533203,4.073443412780762,-5.601495265960693
1716403997268080600,4.61308056640625,2.4360556602478027,3.756861686706543,-4.3734612464904785
1716403997278212400,4.62321240234375,1.890221118927002,3.2647690773010254,-3.70052433013916
1716403997288344300,4.63334423828125,1.781832218170166,2.773197650909424,-3.4349112510681152
1716403997298476000,4.64347607421875,1.521921157836914,2.2218098640441895,-3.092226028442383
1716403997308608000,4.65360791015625,0.863563060760498,1.7234201431274414,-2.676877021789551
1716403997318739700,4.66373974609375,-0.06081533432006836,1.4398984909057617,-2.6826095581054688
1716403997328871700,4.67387158203125,-0.9088249206542969,1.1494460105895996,-1.9323439598083496
1716403997339003400,4.68400341796875,-0.6723852157592773,0.9065804481506348,-1.2820382118225098
1716403997349135400,4.69413525390625,0.17110157012939453,0.5540666580200195,-0.2241826057434082
1716403997359267000,4.70426708984375,1.0109553337097168,0.33043336868286133,1.0253677368164062
1716403997369399000,4.71439892578125,1.04526948928833,0.5039920806884766,1.9176445007324219
1716403997379530800,4.72453076171875,0.6510295867919922,0.9368038177490234,1.0507750511169434
1716403997389662500,4.734662353515625,0.7325401306152344,1.2855830192565918,-0.3168654441833496
1716403997399794400,4.74479443359375,1.1877622604370117,1.0229263305664062,-1.0743303298950195
1716403997409926100,4.754926025390625,0.5744104385375977,0.09090948104858398,-1.1835660934448242
1716403997420058000,4.76505810546875,-0.6784124374389648,-0.6651010513305664,-1.1606130599975586
1716403997430189800,4.77518994140625,-1.9040513038635254,-1.08601713180542,-1.0789742469787598
1716403997440291300,4.785291259765625,-2.357292890548706,-1.3622236251831055,-0.8821144104003906
1716403997450423000,4.795423095703125,-2.2056057453155518,-1.531935691833496,-0.48805999755859375
1716403997460555000,4.805554931640625,-5.251946449279785,-1.7265887260437012,-0.21948480606079102
1716403997470686700,4.815686767578125,-9.895025253295898,-3.427762031555176,-0.04548788070678711
1716403997480818700,4.825818603515625,-2.928898334503174,-5.436385631561279,1.7402424812316895
1716403997490950400,4.835950439453125,4.84075927734375,-5.531460762023926,6.761221408843994
1716403997501082400,4.846082275390625,1.7967407703399658,-4.115602493286133,9.804120063781738
1716403997511214000,4.856214111328125,-4.638227462768555,-3.900756359100342,8.361810684204102
1716403997521346000,4.866345947265625,-1.5627870559692383,-2.704749584197998,4.058351993560791
1716403997531477800,4.876477783203125,1.5949771404266357,-1.7678146362304688,1.3510894775390625
1716403997541609700,4.886609619140625,1.0141708850860596,-2.28841495513916,0.31693267822265625
1716403997551741400,4.896741455078125,1.8739337921142578,-2.8318519592285156,-0.8513593673706055
1716403997561873400,4.906873291015625,2.4240334033966064,-2.2326231002807617,-1.0649337768554688
1716403997572005000,4.917005126953125,1.8851656913757324,-1.1875486373901367,-0.46780824661254883
1716403997582136800,4.92713671875,2.8284826278686523,-0.7080793380737305,-0.00879812240600586
1716403997592268800,4.937268798828125,4.026780128479004,-1.0183582305908203,0.7197237014770508
1716403997602400500,4.947400390625,4.653679847717285,-1.5060057640075684,1.6914019584655762
1716403997612532500,4.957532470703125,2.8986642360687256,-1.4543499946594238,2.5651841163635254
1716403997622664200,4.967664306640625,1.473597526550293,-1.0214605331420898,3.6029648780822754
1716403997632796200,4.977796142578125,1.0398592948913574,-0.7193388938903809,4.005423069000244
1716403997642927900,4.987927978515625,1.7603273391723633,-0.4632086753845215,3.3803157806396484
1716403997653059800,4.998059814453125,3.30452561378479,-0.3889131546020508,3.546245574951172
1716403997663191600,5.008191650390625,5.720731735229492,-0.5625581741333008,4.709588050842285
1716403997673323500,5.018323486328125,7.060839653015137,-0.5867347717285156,3.5460619926452637
1716403997683455200,5.028455322265625,8.117757797241211,-0.43618154525756836,0.7419047355651855
1716403997693587200,5.038587158203125,8.049347877502441,-0.8565711975097656,-8.163785934448242
1716403997703719000,5.048718994140625,5.175074577331543,-1.7100820541381836,-12.867958068847656
1716403997713851000,5.058850830078125,-3.705021381378174,-2.882114887237549,-15.854909896850586
1716403997723982600,5.068982666015625,-6.915589332580566,-3.029763698577881,-15.306781768798828
1716403997734114600,5.079114501953125,-4.515806198120117,-1.682760238647461,-12.498931884765625
1716403997744246300,5.089246337890625,-1.4750736951828003,-0.45802831649780273,-9.35193920135498
1716403997754378200,5.099378173828125,0.05577707290649414,-0.4137840270996094,-7.967838764190674
1716403997764510000,5.109510009765625,0.5730782151222229,-1.176274299621582,-7.491070747375488
1716403997774642000,5.119641845703125,0.9626600742340088,-1.5500316619873047,-6.363959312438965
1716403997784773600,5.129773681640625,0.5178459286689758,-1.6347379684448242,-5.3894805908203125
1716403997794905600,5.139905517578125,0.011578857898712158,-1.5203161239624023,-4.948067665100098
1716403997805037300,5.150037353515625,0.3667435050010681,-1.0644664764404297,-3.8537027835845947
1716403997815169300,5.160169189453125,-0.8704254031181335,-1.0733394622802734,-2.502640962600708
1716403997825301000,5.170301025390625,-0.28634941577911377,-1.3522472381591797,-1.8920743465423584
1716403997835433000,5.180432861328125,-0.9968611001968384,-2.6944169998168945,3.1254525184631348
1716403997845564700,5.190564697265625,-2.1185758113861084,-3.857341766357422,7.295806407928467
1716403997855696600,5.200696533203125,-2.1114230155944824,-3.4724884033203125,11.305213928222656
1716403997865828400,5.210828369140625,-0.3158252239227295,-1.9729490280151367,13.859245300292969
1716403997875960300,5.220960205078125,0.7791598439216614,0.38517189025878906,13.831096649169922
1716403997886092000,5.231092041015625,-1.71287202835083,1.0185117721557617,12.278594970703125
1716403997896223700,5.2412236328125,-2.959244966506958,1.127211570739746,9.787379264831543
1716403997906355700,5.251355712890625,-2.403989315032959,0.9181957244873047,6.705480575561523
1716403997916487400,5.2614873046875,-1.6365461349487305,0.14826297760009766,2.866565227508545
1716403997926619400,5.271619384765625,-2.1613845825195312,-0.32882022857666016,2.7820537090301514
1716403997936751000,5.281751220703125,-2.7565042972564697,-0.19462013244628906,2.7941014766693115
1716403997946883000,5.291883056640625,-2.398237705230713,-0.17323970794677734,2.3912343978881836
1716403997957014800,5.302014892578125,-1.7749168872833252,0.10426044464111328,2.095719337463379
1716403997967146800,5.312146728515625,0.2774297297000885,0.029256820678710938,0.041090965270996094
1716403997977278500,5.322278564453125,-2.022935628890991,1.0318069458007812,-3.064202308654785
1716403997987410400,5.332410400390625,-4.7826642990112305,2.511359214782715,-4.900445461273193
1716403997997542100,5.342542236328125,-3.3710460662841797,3.5545711517333984,-4.14157247543335
1716403998007674000,5.352674072265625,-0.7614255547523499,3.2437257766723633,-1.715747594833374
1716403998017805800,5.362805908203125,0.5754594802856445,1.2477121353149414,0.5702663660049438
1716403998027937800,5.372937744140625,0.6769416928291321,-0.5670661926269531,0.6196237802505493
1716403998038069500,5.383069580078125,0.6695266962051392,-2.3579111099243164,2.1933131217956543
1716403998048201500,5.393201416015625,0.5946305394172668,-3.485743522644043,2.8779115676879883
1716403998058333200,5.403333251953125,0.04040360450744629,-3.785480499267578,3.289485454559326
1716403998068465200,5.413465087890625,-0.5710715651512146,-3.5810022354125977,1.8019237518310547
1716403998078596900,5.423596923828125,-0.11162644624710083,-3.782522201538086,0.40023767948150635
1716403998088728800,5.433728759765625,2.0754151344299316,-4.215912818908691,-0.9514939188957214
1716403998098860500,5.443860595703125,2.864284038543701,-4.800840377807617,-2.187746286392212
1716403998108992500,5.453992431640625,2.21427583694458,-5.850584030151367,-2.7251434326171875
1716403998119124200,5.464124267578125,2.1807332038879395,-6.675449371337891,-2.2862162590026855
1716403998129256200,5.474256103515625,1.7395273447036743,-7.282562255859375,-1.355201005935669
1716403998139388000,5.484387939453125,0.5130061507225037,-7.907962799072266,-0.36990445852279663
1716403998149520000,5.494519775390625,-0.46883824467658997,-8.344786643981934,0.6055318713188171
1716403998159651600,5.504651611328125,-0.7283103466033936,-8.789361000061035,1.194440245628357
1716403998169783600,5.514783447265625,-0.6746854782104492,-9.315342903137207,1.4816291332244873
1716403998179915300,5.524915283203125,-0.859591543674469,-9.790792465209961,1.747627854347229
1716403998190047200,5.535047119140625,-1.6945714950561523,-9.696971893310547,1.703049659729004
1716403998200179000,5.545178955078125,-2.717989921569824,-8.697452545166016,1.1875386238098145
1716403998210311000,5.555310791015625,-3.2778382301330566,-6.9221954345703125,0.43511098623275757
1716403998220412200,5.565412109375,-3.7966933250427246,-4.801953315734863,0.15091437101364136
1716403998230544000,5.5755439453125,-4.364182949066162,-2.7298994064331055,-0.32251864671707153
1716403998240675800,5.58567578125,-4.98636531829834,-0.8567876815795898,-0.8671683073043823
1716403998250807600,5.5958076171875,-5.666817665100098,0.6827306747436523,-1.1873083114624023
1716403998260939500,5.605939453125,-5.634326934814453,1.7033376693725586,-0.6697672009468079
1716403998271071200,5.6160712890625,-4.508510589599609,1.981104850769043,0.6372109651565552
1716403998281203200,5.626203125,-3.453150510787964,1.595376968383789,2.147892713546753
1716403998291335000,5.6363349609375,-3.6701531410217285,0.5632467269897461,3.0277621746063232
1716403998301467000,5.646466796875,-4.2773051261901855,-0.4890604019165039,2.9642834663391113
1716403998311598600,5.6565986328125,-4.398714542388916,-0.6694116592407227,2.659533977508545
1716403998321730600,5.66673046875,-4.0656352043151855,0.02023601531982422,2.453585386276245
1716403998331862300,5.6768623046875,-2.3904459476470947,1.8179597854614258,3.115729570388794
1716403998341994200,5.686994140625,0.4403229355812073,3.9403343200683594,3.000711441040039
1716403998352126000,5.6971259765625,2.448462963104248,3.3893136978149414,6.280879974365234
1716403998362258000,5.7072578125,3.66123104095459,0.6139993667602539,8.270877838134766
1716403998372389600,5.7173896484375,4.1882476806640625,-2.874112129211426,7.836336612701416
1716403998382521600,5.727521484375,3.178783416748047,-5.382208824157715,6.086763381958008
1716403998392653300,5.7376533203125,1.479478359222412,-6.413821220397949,1.8605320453643799
1716403998402785000,5.747784912109375,0.8998217582702637,-6.671196937561035,-0.6214727163314819
1716403998412917000,5.7579169921875,1.4224165678024292,-6.713536262512207,-3.1255595684051514
1716403998423048700,5.768048583984375,2.1599884033203125,-6.213835716247559,-5.539638042449951
1716403998433180700,5.7781806640625,2.3894972801208496,-5.092995643615723,-7.493709564208984
1716403998443312400,5.7883125,2.1525046825408936,-3.8274927139282227,-8.6234130859375
1716403998453444400,5.7984443359375,1.5943195819854736,-2.7804031372070312,-8.632513999938965
1716403998463576000,5.808576171875,-0.013030052185058594,-2.0458478927612305,-7.283149719238281
1716403998473708000,5.8187080078125,-3.6315717697143555,-1.537649154663086,-4.831708908081055
1716403998483839700,5.82883984375,-6.94843864440918,-1.8336029052734375,-2.6158862113952637
1716403998493971700,5.8389716796875,-6.226231575012207,-3.0350217819213867,-4.416732311248779
1716403998504103400,5.849103515625,-2.583223342895508,-3.005040168762207,-6.2074761390686035
1716403998514235400,5.8592353515625,1.297102689743042,-2.005415916442871,-5.160633087158203
1716403998524367000,5.8693671875,4.075252532958984,-0.9069395065307617,-2.956404447555542
1716403998534499000,5.8794990234375,4.764426231384277,-0.10027790069580078,-0.9929213523864746
1716403998544630800,5.889630859375,4.098388671875,0.4857215881347656,-1.0903875827789307
1716403998554762800,5.8997626953125,2.970734119415283,0.8163671493530273,0.23772335052490234
1716403998564894500,5.90989453125,1.8212623596191406,1.0486736297607422,0.6873281002044678
1716403998575026400,5.9200263671875,1.6951518058776855,1.1832084655761719,0.4098551273345947
1716403998585158100,5.930158203125,2.54416561126709,1.7095232009887695,-0.27315235137939453
1716403998595290000,5.9402900390625,3.7894177436828613,2.339266777038574,-0.7084901332855225
1716403998605421800,5.950421875,4.887701988220215,3.0441222190856934,-1.0553274154663086
1716403998615553800,5.9605537109375,5.274778842926025,3.6362924575805664,-1.2760345935821533
1716403998625685500,5.970685546875,5.846111297607422,4.066134452819824,-1.2323627471923828
1716403998635817500,5.9808173828125,6.542035102844238,4.469536304473877,-1.0332467555999756
1716403998645949200,5.99094921875,7.140821933746338,4.938748359680176,-0.9085285663604736
1716403998656081200,6.0010810546875,7.7321929931640625,5.473421573638916,-1.2663707733154297
1716403998666212900,6.011212890625,8.29085922241211,6.045244216918945,-1.894371509552002
1716403998676344800,6.0213447265625,8.765172958374023,6.426441192626953,-2.661236047744751
1716403998686476500,6.0314765625,8.919768333435059,6.412832736968994,-3.6298508644104004
1716403998696608500,6.0416083984375,8.362958908081055,6.07786226272583,-4.1233229637146
1716403998706740200,6.051740234375,7.345858097076416,5.574237823486328,-3.6545464992523193
1716403998716872200,6.0618720703125,5.996218204498291,4.669132709503174,-2.7690482139587402
1716403998727004000,6.07200390625,4.512436389923096,3.546550750732422,-1.8258440494537354
1716403998737135600,6.082135498046875,3.013669013977051,2.5240583419799805,-0.9713470935821533
1716403998747267600,6.092267578125,1.7371768951416016,1.627652645111084,-0.47639942169189453
1716403998757399300,6.1023994140625,0.5638394355773926,0.7795500755310059,-0.45565152168273926
1716403998767531300,6.11253125,-0.9288020133972168,0.3000450134277344,-0.17151212692260742
1716403998777663000,6.1226630859375,-2.302070140838623,0.3224058151245117,0.24814724922180176
1716403998787795000,6.132794921875,-3.6793928146362305,0.4939541816711426,0.188307523727417
1716403998797926700,6.1429267578125,-4.217449188232422,-0.10745525360107422,0.7183325290679932
1716403998808058600,6.15305859375,-2.0881309509277344,-0.9358382225036621,1.3320951461791992
1716403998818190300,6.1631904296875,-0.10977697372436523,-0.5245466232299805,2.3376102447509766
1716403998828322300,6.173322265625,3.7783045768737793,0.7546000480651855,2.6261603832244873
1716403998838454000,6.1834541015625,10.236322402954102,2.2915830612182617,-0.8892538547515869
1716403998848586000,6.1935859375,13.136897087097168,3.0233631134033203,-3.704174757003784
1716403998858717700,6.2037177734375,8.366127014160156,2.8280014991760254,-6.643283843994141
1716403998868849700,6.213849609375,-21.091548919677734,0.49422693252563477,-9.85568618774414
1716403998878981400,6.2239814453125,-32.110782623291016,-5.837553977966309,-7.729740619659424
1716403998889113300,6.23411328125,-2.5776195526123047,-14.096406936645508,0.061289310455322266
1716403998899245000,6.2442451171875,17.66817855834961,-16.63022232055664,0.06510305404663086
1716403998909377000,6.254376953125,6.605645179748535,-16.0342960357666,12.383123397827148
1716403998919508700,6.2645087890625,-7.847823619842529,-13.078116416931152,16.10764503479004
1716403998929640700,6.274640625,-6.595947742462158,-6.210005760192871,7.6527862548828125
1716403998939772400,6.2847724609375,1.0052943229675293,0.643280029296875,-0.542020320892334
1716403998949904400,6.294904296875,6.106720447540283,4.816320419311523,-0.9618308544158936
1716403998960036000,6.3050361328125,4.93550968170166,5.793447494506836,-2.5735483169555664
1716403998970168000,6.31516796875,1.1395354270935059,4.381060600280762,-5.639723777770996
1716403998980299800,6.3252998046875,0.04247689247131348,2.7595090866088867,-7.835075378417969
1716403998990431700,6.335431640625,1.8268945217132568,1.5523595809936523,-8.163806915283203
1716403999000533000,6.345532958984375,3.5754854679107666,0.2790489196777344,-6.631756782531738
1716403999010664700,6.355664794921875,2.950766086578369,-1.4058952331542969,-3.890671730041504
1716403999020796700,6.365796630859375,1.7447118759155273,-3.486299514770508,-0.864804744720459
1716403999030928400,6.375928466796875,0.27960753440856934,-5.05202579498291,-0.7492926120758057
1716403999041060400,6.386060302734375,-0.46048974990844727,-5.623238563537598,2.312690019607544
1716403999051192000,6.396192138671875,0.7699456214904785,-5.051377296447754,4.351573944091797
1716403999061324000,6.406323974609375,2.6283278465270996,-3.62030029296875,3.937607526779175
1716403999071455700,6.416455810546875,3.6913013458251953,-1.9993114471435547,2.6349077224731445
1716403999081587700,6.426587646484375,4.037328720092773,-0.5536937713623047,-0.10513758659362793
1716403999091719400,6.436719482421875,3.4907443523406982,0.6735801696777344,-0.8373523950576782
1716403999101851400,6.446851318359375,2.1494083404541016,1.4878511428833008,-1.4256117343902588
1716403999111983000,6.456983154296875,0.16525328159332275,1.7869453430175781,-2.137645959854126
1716403999122115000,6.467114990234375,-1.3261984586715698,1.8176631927490234,-2.5167689323425293
1716403999132246800,6.477246826171875,-1.9914100170135498,1.7724924087524414,-2.1516852378845215
1716403999142378800,6.487378662109375,-2.0654399394989014,1.6731986999511719,-1.04637610912323
1716403999152510500,6.497510498046875,-1.6540424823760986,1.5290184020996094,0.22422826290130615
1716403999162642400,6.507642333984375,-1.3354406356811523,1.4426002502441406,1.3476159572601318
1716403999172774100,6.517774169921875,-1.2483837604522705,1.368311882019043,1.4915294647216797
1716403999182906000,6.527906005859375,-1.067966341972351,1.3537235260009766,2.2582621574401855
1716403999193037800,6.538037841796875,-0.3204852342605591,1.2916669845581055,2.8941543102264404
1716403999203169800,6.548169677734375,0.5438011288642883,1.1905136108398438,3.49251651763916
1716403999213301500,6.558301513671875,1.0320565700531006,1.1636180877685547,3.391620635986328
1716403999223433200,6.56843310546875,1.0819065570831299,1.3500404357910156,3.1295166015625
1716403999233565200,6.578565185546875,0.5800118446350098,1.6776018142700195,3.1092612743377686
1716403999243697000,6.58869677734375,-0.6034049987792969,1.8590974807739258,2.909761428833008
1716403999253828900,6.598828857421875,-1.7153964042663574,1.727705955505371,1.5754022598266602
1716403999263960600,6.608960693359375,-2.2976269721984863,1.590108871459961,1.4154797792434692
1716403999274092500,6.619092529296875,-2.2515788078308105,1.5397682189941406,1.5273749828338623
1716403999284224300,6.629224365234375,-2.232980728149414,1.292572021484375,1.2844696044921875
1716403999294356200,6.639356201171875,-2.222425937652588,0.8807916641235352,0.8404532074928284
1716403999304488000,6.649488037109375,-2.1083366870880127,0.5132637023925781,0.6782925128936768
1716403999314620000,6.659619873046875,-2.0112032890319824,0.2281646728515625,1.0676014423370361
1716403999324751600,6.669751708984375,-2.032473087310791,-0.06587505340576172,1.6223807334899902
1716403999334883600,6.679883544921875,-1.9419177770614624,-0.2545938491821289,1.8382145166397095
1716403999345015300,6.690015380859375,-1.5827527046203613,-0.25965118408203125,1.6159310340881348
1716403999355147300,6.700147216796875,-1.3465672731399536,-0.07424640655517578,1.115351915359497
1716403999365279000,6.710279052734375,-1.6838032007217407,0.1746511459350586,0.8547793626785278
1716403999375411000,6.720410888671875,-2.1742148399353027,0.3791046142578125,1.1284624338150024
1716403999385542700,6.730542724609375,-2.2157227993011475,0.3929128646850586,1.5136780738830566
1716403999395674600,6.740674560546875,-2.4606239795684814,-0.24216651916503906,1.4803088903427124
1716403999405806300,6.750806396484375,-2.8171370029449463,-1.4737586975097656,0.8890061378479004
1716403999415938300,6.760938232421875,-1.2008936405181885,-2.5104007720947266,0.15303117036819458
1716403999426070000,6.771070068359375,1.8737982511520386,-2.4358129501342773,0.30407339334487915
1716403999436202000,6.781201904296875,3.312729597091675,-1.9000415802001953,0.9243886470794678
1716403999446333700,6.791333740234375,2.6203649044036865,-1.619309425354004,0.7552211880683899
1716403999456465700,6.801465576171875,1.7550852298736572,-1.867680549621582,-0.41719335317611694
1716403999466597400,6.811597412109375,0.860335648059845,-2.5850706100463867,-1.8016375303268433
1716403999476729300,6.821729248046875,0.9595808386802673,-3.018209457397461,-2.3713808059692383
1716403999486861000,6.831861083984375,2.9148247241973877,-2.827787399291992,-2.0569705963134766
1716403999496993000,6.841992919921875,4.137815475463867,-2.773892402648926,-1.7086656093597412
1716403999507124700,6.852124755859375,2.986711263656616,-3.2999658584594727,-1.5823357105255127
1716403999517256700,6.862256591796875,-0.12372875213623047,-4.413076400756836,-1.4076356887817383
1716403999527388400,6.872388427734375,-2.3441243171691895,-5.782199859619141,-0.6186249256134033
1716403999537520400,6.882520263671875,-2.815394878387451,-6.885584831237793,0.6527843475341797
1716403999547652000,6.892652099609375,-2.9513370990753174,-7.0762939453125,2.180446147918701
1716403999557783800,6.90278369140625,-3.1117610931396484,-6.594586372375488,2.2438299655914307
1716403999567915800,6.912915771484375,-3.2255005836486816,-6.200560569763184,3.3458969593048096
1716403999578047500,6.923047607421875,-2.939056158065796,-6.361570358276367,2.281625747680664
1716403999588179500,6.933179443359375,-2.9462475776672363,-6.711390495300293,0.6987693309783936
1716403999598311200,6.943311279296875,-3.419863224029541,-6.567033767700195,-0.631482720375061
1716403999608443100,6.953443115234375,-3.31534481048584,-5.215456008911133,-1.2175441980361938
1716403999618574800,6.963574951171875,-2.8495876789093018,-3.1084604263305664,-1.2774710655212402
1716403999628706800,6.973706787109375,-2.913567066192627,-1.0097293853759766,-0.45275241136550903
1716403999638838500,6.983838623046875,-3.24456524848938,0.3096437454223633,-0.36573630571365356
1716403999648970500,6.993970458984375,-3.1329779624938965,0.7394819259643555,1.2144191265106201
1716403999659102200,7.004102294921875,-2.762012243270874,0.45925140380859375,2.2923471927642822
1716403999669234200,7.014234130859375,-2.658954620361328,-0.4396543502807617,2.347271203994751
1716403999679366000,7.024365966796875,-3.2511651515960693,-1.5547046661376953,3.6865036487579346
1716403999689497900,7.034497802734375,-3.8421833515167236,-1.7841148376464844,4.653759479522705
1716403999699629600,7.044629638671875,-3.651278495788574,-0.5535888671875,4.900445461273193
1716403999709761500,7.054761474609375,-2.2206990718841553,1.2826080322265625,4.397560119628906
1716403999719893200,7.064893310546875,-1.117002248764038,3.0906152725219727,4.0358757972717285
1716403999730025200,7.075025146484375,-0.7320312261581421,4.493165969848633,3.9298226833343506
1716403999740157000,7.085156982421875,-0.09789039194583893,4.882723808288574,5.848331928253174
1716403999750289000,7.095288818359375,1.2638206481933594,4.063474655151367,7.335604667663574
1716403999760420600,7.105420654296875,3.1510744094848633,2.683650016784668,8.111539840698242
1716403999770552600,7.115552490234375,4.278069019317627,0.7825994491577148,7.3523077964782715
1716403999780684300,7.125684326171875,5.379783630371094,-1.0667247772216797,2.029843330383301
1716403999790816300,7.135816162109375,6.247867584228516,-2.386834144592285,-0.4800170660018921
1716403999800948000,7.145947998046875,6.1431756019592285,-2.872457504272461,-1.9145195484161377
1716403999811080000,7.156079833984375,4.333824157714844,-2.5368738174438477,-2.7382075786590576
1716403999821181200,7.16618115234375,0.6978970766067505,-1.4908504486083984,-3.380521059036255
1716403999831313000,7.17631298828125,-4.429026126861572,-0.5019655227661133,-6.033490180969238
1716403999841444900,7.18644482421875,-6.794527053833008,-0.2846517562866211,-9.755172729492188
1716403999851576600,7.19657666015625,-3.6396124362945557,-0.1637115478515625,-10.993449211120605
1716403999861708500,7.20670849609375,1.1394906044006348,0.2770700454711914,-9.188254356384277
1716403999871840300,7.21684033203125,3.6878695487976074,0.9261550903320312,-5.211574554443359
1716403999881972200,7.22697216796875,4.6191606521606445,1.3837471008300781,-0.31709420680999756
1716403999892104000,7.23710400390625,4.198049545288086,1.258676528930664,-0.3222205638885498
1716403999902236000,7.24723583984375,2.7175261974334717,0.4855918884277344,4.149167060852051
1716403999912367600,7.25736767578125,1.3423395156860352,-0.2539196014404297,7.16201639175415
1716403999922499600,7.26749951171875,0.07549309730529785,-0.30211353302001953,8.845552444458008
1716403999932631300,7.27763134765625,-0.3546788692474365,-0.28026580810546875,9.004788398742676
1716403999942763300,7.28776318359375,0.311506986618042,-0.3403310775756836,7.458927154541016
1716403999952895000,7.29789501953125,1.5189752578735352,-0.25846004486083984,4.893495559692383
1716403999963027000,7.30802685546875,2.891925811767578,0.06679153442382812,2.429028272628784
1716403999973158700,7.31815869140625,3.7257020473480225,0.6436014175415039,-0.2732374668121338
1716403999983290600,7.32829052734375,3.7328603267669678,1.318343162536621,-0.4618957042694092
1716403999993422300,7.33842236328125,3.5427889823913574,1.9030132293701172,-0.2879035472869873
1716404000003554300,7.34855419921875,3.3306355476379395,2.2485036849975586,-0.11954975128173828
1716404000013686000,7.35868603515625,3.1052207946777344,2.3172473907470703,-0.17671418190002441
1716404000023818000,7.36881787109375,3.117854595184326,2.1808509826660156,-0.07415604591369629
1716404000033949700,7.37894970703125,3.3620247840881348,1.9903392791748047,-0.28330564498901367
1716404000044081700,7.38908154296875,3.7236580848693848,1.787466049194336,-0.5484747886657715
1716404000054213400,7.39921337890625,3.7262372970581055,1.5541892051696777,-0.8756754398345947
1716404000064345000,7.409344970703125,4.0820441246032715,1.5221657752990723,-1.2398710250854492
1716404000074477000,7.41947705078125,4.400213241577148,1.5487794876098633,-1.7389731407165527
1716404000084608800,7.42960888671875,4.776291847229004,1.6447391510009766,-2.065646171569824
1716404000094740700,7.43974072265625,5.202615261077881,1.871199607849121,-2.3753085136413574
1716404000104872400,7.44987255859375,5.49754524230957,2.2091164588928223,-2.7137012481689453
1716404000115004400,7.46000439453125,5.659640789031982,2.5477824211120605,-2.9126758575439453
1716404000125136100,7.47013623046875,5.423953533172607,2.830688953399658,-3.0471673011779785
1716404000135268000,7.48026806640625,4.876797676086426,2.94650936126709,-3.197308301925659
1716404000145399800,7.49039990234375,4.1837849617004395,2.7360353469848633,-3.265216827392578
1716404000155531800,7.50053173828125,3.4318227767944336,2.2719082832336426,-3.1562111377716064
1716404000165663500,7.51066357421875,2.6693496704101562,1.6467585563659668,-2.887359619140625
1716404000175795500,7.52079541015625,1.7638540267944336,0.9509105682373047,-2.5865166187286377
1716404000185927200,7.53092724609375,0.8499817848205566,0.1989274024963379,-2.165987730026245
1716404000196059100,7.54105908203125,-0.07301139831542969,-0.529970645904541,-1.6408395767211914
1716404000206190800,7.55119091796875,-0.9578781127929688,-0.9981498718261719,-0.9579601287841797
1716404000216322800,7.56132275390625,-1.6928377151489258,-0.9520463943481445,-0.9161679744720459
1716404000226454500,7.57145458984375,-2.141392707824707,-0.36014652252197266,-0.10639286041259766
1716404000236586500,7.58158642578125,-2.7838797569274902,0.4589052200317383,0.5856733322143555
1716404000246718200,7.59171826171875,-3.399919033050537,1.3502197265625,1.0063626766204834
1716404000256850200,7.60185009765625,-4.0947980880737305,1.9633197784423828,1.6856756210327148
1716404000266982000,7.61198193359375,-5.1120195388793945,2.0137367248535156,2.7412619590759277
1716404000277113900,7.62211376953125,-5.242180347442627,1.3599004745483398,3.952610731124878
1716404000287245600,7.63224560546875,-4.778561592102051,0.18310165405273438,5.157216548919678
1716404000297377500,7.64237744140625,-4.660898208618164,-1.3897390365600586,6.047119140625
1716404000307509200,7.65250927734375,-4.8373517990112305,-2.891737937927246,6.117913246154785
1716404000317641200,7.66264111328125,-4.815293312072754,-2.992128372192383,5.367881774902344
1716404000327773000,7.67277294921875,-2.656606674194336,-1.0604047775268555,4.842229843139648
1716404000337905000,7.68290478515625,2.0470492839813232,1.5049095153808594,4.838600158691406
1716404000348036600,7.69303662109375,7.096263408660889,3.5981712341308594,5.01385498046875
1716404000358168600,7.70316845703125,10.173813819885254,4.219404220581055,4.842012405395508
1716404000368300300,7.71330029296875,9.346144676208496,2.5778512954711914,-0.4493527412414551
1716404000378432000,7.723431884765625,4.978971481323242,-2.9556379318237305,-3.6702702045440674
1716404000388564000,7.73356396484375,-1.644953966140747,-10.89266300201416,-5.412448883056641
1716404000398695700,7.74369580078125,-11.996973991394043,-16.731487274169922,-3.050628662109375
1716404000408827600,7.75382763671875,-12.210744857788086,-17.260665893554688,-3.0259087085723877
1716404000418959400,7.76395947265625,-1.9965708255767822,-9.693288803100586,-2.264470100402832
1716404000429091300,7.77409130859375,6.205867290496826,-1.100168228149414,-5.077936172485352
1716404000439223000,7.78422314453125,9.08701229095459,4.123888969421387,-6.2395734786987305
1716404000449355000,7.79435498046875,7.381025314331055,5.916529655456543,-6.282942771911621
1716404000459486700,7.80448681640625,6.00467586517334,4.980177879333496,-5.762578010559082
1716404000469618700,7.81461865234375,7.45231819152832,2.373539924621582,-4.232264518737793
1716404000479750400,7.82475048828125,7.935036659240723,-0.5355873107910156,-1.628462314605713
1716404000489882400,7.83488232421875,5.6506805419921875,-3.501871109008789,-1.5176916122436523
1716404000500014000,7.84501416015625,3.234172821044922,-5.597163200378418,0.8870851993560791
1716404000510146000,7.85514599609375,2.807736873626709,-6.375707626342773,3.075836658477783
1716404000520277800,7.86527783203125,3.3887975215911865,-5.699850082397461,4.805042743682861
1716404000530409700,7.87540966796875,3.5970497131347656,-3.284330368041992,4.759840965270996
1716404000540541400,7.88554150390625,3.8796799182891846,-0.5539331436157227,2.7617640495300293
1716404000550673400,7.89567333984375,4.2076826095581055,0.7277469635009766,-0.04929351806640625
1716404000560805000,7.90580517578125,4.1147050857543945,0.8511886596679688,-0.4880516529083252
1716404000570937000,7.91593701171875,3.24369478225708,0.39698123931884766,-0.3515751361846924
1716404000581068800,7.92606884765625,1.9889686107635498,-0.2248973846435547,0.14010381698608398
1716404000591200800,7.93620068359375,1.1477994918823242,-0.8271818161010742,0.43824124336242676
1716404000601332500,7.94633251953125,0.3203730583190918,-1.2500343322753906,-0.09238684177398682
1716404000611464400,7.95646435546875,-0.26658105850219727,-1.187347412109375,-1.1755197048187256
1716404000621596200,7.96659619140625,-0.3855245113372803,-0.6709356307983398,-2.202754020690918
1716404000631728000,7.97672802734375,-0.5585181713104248,0.015970230102539062,-3.0017199516296387
1716404000641859800,7.98685986328125,-0.7820694446563721,0.5239152908325195,-2.9076151847839355
1716404000651961000,7.996961181640625,-0.9774824380874634,0.5038385391235352,-2.0476670265197754
1716404000662093000,8.007093017578125,-0.7109129428863525,0.3029136657714844,-0.6315549612045288
1716404000672224800,8.017224853515625,-0.41820263862609863,0.17926502227783203,0.8759301900863647
1716404000682356700,8.027356689453125,-0.45705127716064453,0.07792186737060547,1.011695384979248
1716404000692488400,8.037488525390625,-0.5627816915512085,0.16091346740722656,2.207540273666382
1716404000702620400,8.047620361328125,-0.5065274238586426,0.5920639038085938,3.1203668117523193
1716404000712752000,8.057752197265625,-0.30876898765563965,1.2058000564575195,3.889767646789551
1716404000722884000,8.067884033203125,-0.17157423496246338,1.629770278930664,4.400333881378174
1716404000733015800,8.078015869140625,-0.07502686977386475,1.7738094329833984,4.5654072761535645
1716404000743147800,8.088147705078125,0.018723011016845703,1.676870346069336,4.384394645690918
1716404000753279500,8.098279541015625,0.17815232276916504,1.4374990463256836,3.9676082134246826
1716404000763411500,8.108411376953125,0.39046764373779297,1.1948738098144531,3.4361913204193115
1716404000773543200,8.118543212890625,0.40722352266311646,0.9732046127319336,2.141417980194092
1716404000783675100,8.128675048828125,0.2164597511291504,0.7366628646850586,1.4360190629959106
1716404000793806800,8.138806884765625,-0.12305784225463867,0.5804967880249023,0.8831987977027893
1716404000803938800,8.148938720703125,-0.3569622039794922,0.509124755859375,0.5001671314239502
1716404000814070500,8.159070556640625,-0.4129512310028076,0.5198860168457031,0.24648535251617432
1716404000824202500,8.169202392578125,-0.5321605205535889,0.4360170364379883,-0.10493703186511993
1716404000834334200,8.179334228515625,-0.7269316911697388,0.2698993682861328,-0.5833711624145508
1716404000844466200,8.189466064453125,-0.8842871189117432,0.1651010513305664,-0.936062216758728
1716404000854598000,8.199597900390625,-1.0954493284225464,0.2646980285644531,-0.7813853621482849
1716404000864729900,8.209729736328125,-1.2165603637695312,0.2651519775390625,-0.09374934434890747
1716404000874861600,8.219861572265625,-0.98066246509552,0.07402896881103516,0.677416205406189
1716404000884993300,8.2299931640625,-0.5841951966285706,-0.21228885650634766,1.2789483070373535
1716404000895125200,8.240125244140625,-0.37833312153816223,-0.24480724334716797,1.755587100982666
1716404000905257000,8.250257080078125,-0.39610132575035095,-0.009845733642578125,2.3985726833343506
1716404000915389000,8.260388916015625,-0.37928879261016846,0.19116783142089844,3.1557397842407227
1716404000925520600,8.270520751953125,-0.554553747177124,0.11503124237060547,3.1729371547698975
1716404000935652600,8.280652587890625,-1.1144825220108032,-0.3256034851074219,3.825927734375
1716404000945784300,8.290784423828125,-1.8299504518508911,-0.9290914535522461,4.187929153442383
1716404000955916300,8.300916259765625,-1.902224063873291,-1.2393789291381836,3.1464028358459473
1716404000966048000,8.311048095703125,-0.9192972779273987,-1.0118637084960938,2.450316905975342
1716404000976180000,8.321179931640625,-0.06463120877742767,-0.9383258819580078,2.3296258449554443
1716404000986311700,8.331311767578125,-0.6120119690895081,-0.9486303329467773,3.061685085296631
1716404000996443600,8.341443603515625,-2.0897507667541504,-0.6955327987670898,3.0539822578430176
1716404001006575400,8.351575439453125,-3.3916001319885254,-0.5496788024902344,3.9195404052734375
1716404001016707300,8.361707275390625,-4.372780799865723,-0.6687412261962891,4.438599586486816
1716404001026839000,8.371839111328125,-4.6189656257629395,-0.560847282409668,4.690126895904541
1716404001036971000,8.381970947265625,-4.154242515563965,-0.7767734527587891,4.779910087585449
1716404001047102700,8.392102783203125,-3.8675949573516846,-1.1927118301391602,4.963047981262207
1716404001057234700,8.402234619140625,-3.4610507488250732,-1.6853399276733398,5.051791667938232
1716404001067366400,8.412366455078125,-1.5674090385437012,-2.04278564453125,4.893808841705322
1716404001077498400,8.422498291015625,0.21027815341949463,-2.153261184692383,4.46726131439209
1716404001087630000,8.432630126953125,1.3175249099731445,-2.8279848098754883,4.0171427726745605
1716404001097762000,8.442761962890625,2.48032283782959,-3.838564872741699,3.6919548511505127
1716404001107893800,8.452893798828125,3.449794292449951,-4.334406852722168,3.491014003753662
1716404001118025700,8.463025634765625,3.81469464302063,-3.878720283508301,3.534658670425415
1716404001128157400,8.473157470703125,3.445559024810791,-3.5170230865478516,3.8548452854156494
1716404001138289400,8.483289306640625,3.027766704559326,-3.1465024948120117,3.7866573333740234
1716404001148421000,8.493421142578125,2.6709964275360107,-2.6026840209960938,3.5844221115112305
1716404001158553000,8.503552978515625,3.3597748279571533,-2.651026725769043,3.1283493041992188
1716404001168684800,8.513684814453125,4.982370853424072,-3.649557113647461,1.0861746072769165
1716404001178816800,8.523816650390625,6.432384967803955,-4.914051055908203,-0.0018219351768493652
1716404001188948500,8.533948486328125,6.606120586395264,-5.5106096267700195,-0.41898632049560547
1716404001199080200,8.544080078125,5.634466171264648,-5.005411148071289,0.043054819107055664
1716404001209212200,8.554212158203125,4.24607515335083,-3.9344396591186523,1.263537049293518
1716404001219344000,8.56434375,3.1927454471588135,-2.838810920715332,1.1007623672485352
1716404001229475800,8.574475830078125,2.407050848007202,-1.9922723770141602,2.5086865425109863
1716404001239607600,8.584607666015625,1.7738378047943115,-1.5342292785644531,3.429410934448242
1716404001249739500,8.594739501953125,1.6034319400787354,-1.5127220153808594,3.365828037261963
1716404001259871200,8.604871337890625,1.8890409469604492,-1.7951507568359375,2.6352245807647705
1716404001270003200,8.615003173828125,2.274036407470703,-2.1454343795776367,2.0236685276031494
1716404001280135000,8.625135009765625,2.69087290763855,-2.5807294845581055,1.678450584411621
1716404001290267000,8.635266845703125,3.0543227195739746,-2.6754350662231445,0.8554975986480713
1716404001300398600,8.645398681640625,3.328298330307007,-2.4421939849853516,0.2794511318206787
1716404001310530600,8.655530517578125,3.7264232635498047,-2.1923484802246094,0.2943427562713623
1716404001320662300,8.665662353515625,4.041828632354736,-1.9408063888549805,-0.046396493911743164
1716404001330794200,8.675794189453125,4.516989231109619,-1.7141056060791016,-0.22301793098449707
1716404001340926000,8.685926025390625,5.03409481048584,-1.303359031677246,-0.1970229148864746
1716404001351058000,8.696057861328125,5.196293830871582,-0.8268337249755859,-0.17582249641418457
1716404001361189600,8.706189697265625,5.261164665222168,-0.5322551727294922,-0.6774764060974121
1716404001371321600,8.716321533203125,5.271645545959473,-0.2611980438232422,-1.419893741607666
1716404001381453300,8.726453369140625,5.283655166625977,-0.02022266387939453,-2.271404504776001
1716404001391585300,8.736585205078125,5.258982181549072,0.10091495513916016,-3.1562325954437256
1716404001401717000,8.746717041015625,4.954858779907227,0.09112071990966797,-3.9292802810668945
1716404001411849000,8.756848876953125,4.31061315536499,-0.03752899169921875,-4.663222312927246
1716404001421980700,8.766980712890625,3.8935317993164062,-0.17679786682128906,-5.142107009887695
1716404001432112600,8.777112548828125,3.475393295288086,-0.12156963348388672,-5.221645355224609
1716404001442244400,8.787244384765625,2.688704013824463,0.2291727066040039,-5.2385663986206055
1716404001452376300,8.797376220703125,1.6284432411193848,0.684506893157959,-5.353821754455566
1716404001462508000,8.807508056640625,0.7487850189208984,0.7220797538757324,-5.543651103973389
1716404001472640000,8.817639892578125,0.13318872451782227,0.4957432746887207,-5.3272294998168945
1716404001482771700,8.827771728515625,-0.4174199104309082,0.2052159309387207,-4.846800804138184
1716404001492903700,8.837903564453125,-0.998072624206543,0.1750774383544922,-4.133800506591797
1716404001503035400,8.848035400390625,-1.1207003593444824,0.40669965744018555,-3.025822162628174
1716404001513167000,8.8581669921875,-1.176133155822754,0.7984247207641602,-1.5766634941101074
1716404001523299000,8.868299072265625,-1.4076838493347168,1.3787894248962402,0.12380695343017578
1716404001533400300,8.878400390625,-1.4709467887878418,1.9793386459350586,0.1477375030517578
1716404001543532300,8.8885322265625,-1.102285385131836,2.324368953704834,1.8878602981567383
1716404001553664000,8.8986640625,-0.6024303436279297,2.5160865783691406,3.5067825317382812
1716404001563796000,8.9087958984375,-0.3542060852050781,2.5840659141540527,4.82399845123291
1716404001573927700,8.918927734375,-0.32677793502807617,2.4925827980041504,5.364959239959717
1716404001584059600,8.9290595703125,-0.2944173812866211,2.35634708404541,4.996305465698242
1716404001594191400,8.93919140625,-0.10236597061157227,2.215730667114258,4.024386405944824
1716404001604323300,8.9493232421875,0.36104583740234375,1.9864873886108398,2.816694498062134
1716404001614455000,8.959455078125,0.8084468841552734,1.6703672409057617,1.8156554698944092
1716404001624587000,8.9695869140625,0.9907898902893066,1.3197317123413086,1.221982717514038
1716404001634718700,8.97971875,0.9101266860961914,0.9825248718261719,0.8830187320709229
1716404001644850700,8.9898505859375,0.5085024833679199,0.7107658386230469,0.027580738067626953
1716404001654982400,8.999982421875,-0.636077880859375,0.26358890533447266,-0.9285938739776611
1716404001665114400,9.0101142578125,-3.024608612060547,-1.3823003768920898,-2.010979652404785
1716404001675246000,9.02024609375,-4.66525411605835,-4.691832542419434,-2.480917453765869
1716404001685378000,9.0303779296875,-3.265042781829834,-9.618058204650879,-2.503455400466919
1716404001695509800,9.040509765625,-0.6575403213500977,-14.674102783203125,-1.6863813400268555
1716404001705641500,9.050641357421876,0.3502030372619629,-14.879331588745117,-1.663377046585083
1716404001715773400,9.0607734375,1.7431368827819824,-9.105886459350586,1.1130425930023193
1716404001725905200,9.0709052734375,3.170041084289551,-2.9550294876098633,2.795815944671631
1716404001736037000,9.081037109375,3.7063121795654297,0.9763374328613281,-1.827113151550293
1716404001746168800,9.0911689453125,5.032346248626709,2.5513439178466797,-4.087102890014648
1716404001756300800,9.10130078125,6.179029941558838,2.4967613220214844,-4.524383544921875
1716404001766432500,9.1114326171875,6.59662389755249,1.9048442840576172,-3.228931427001953
1716404001776564500,9.121564453125,6.779106616973877,1.6009397506713867,-1.1315011978149414
1716404001786696200,9.1316962890625,6.31740140914917,1.447007179260254,-1.1412286758422852
1716404001796828200,9.141828125,5.345368385314941,1.0649127960205078,0.537578821182251
1716404001806959900,9.1519599609375,4.601773262023926,0.3239011764526367,1.2732477188110352
1716404001817091800,9.162091796875,3.725064992904663,-0.6618633270263672,1.3131341934204102
1716404001827223600,9.1722236328125,3.138669967651367,-1.5807857513427734,1.0260307788848877
1716404001837355500,9.18235546875,2.664879083633423,-2.2648658752441406,0.25773072242736816
1716404001847487200,9.1924873046875,1.9600169658660889,-2.9130964279174805,-0.5313153266906738
1716404001857619200,9.202619140625,1.4238638877868652,-3.3568191528320312,-1.097442626953125
1716404001867751000,9.2127509765625,1.1292753219604492,-3.5402231216430664,-1.061964988708496
1716404001877883000,9.2228828125,0.9429540634155273,-3.593438148498535,-0.8308587074279785
1716404001888014600,9.2330146484375,0.7727663516998291,-3.455145835876465,-0.9833309650421143
1716404001898146600,9.243146484375,0.8029303550720215,-2.8385486602783203,-1.4100871086120605
1716404001908278300,9.2532783203125,1.0443153381347656,-1.9534368515014648,-1.6762254238128662
1716404001918410200,9.26341015625,1.206045389175415,-1.0960578918457031,-2.1253130435943604
1716404001928542000,9.2735419921875,0.9958515167236328,-0.3265867233276367,-2.5853042602539062
1716404001938674000,9.283673828125,0.7215449810028076,0.22820186614990234,-2.800490379333496
1716404001948805600,9.2938056640625,0.7421634197235107,0.4757251739501953,-2.8806087970733643
1716404001958937600,9.3039375,0.8236830234527588,0.5196866989135742,-2.664527654647827
1716404001969069300,9.3140693359375,1.000099778175354,0.4611530303955078,-2.1179676055908203
1716404001979201300,9.324201171875,1.0386550426483154,0.48686981201171875,-1.333270788192749
1716404001989333000,9.3343330078125,0.9312152862548828,0.6728620529174805,-0.4573770761489868
1716404001999465000,9.34446484375,0.7050485610961914,0.8368406295776367,0.39167869091033936
1716404002009596700,9.3545966796875,0.46490180492401123,0.7182855606079102,1.0241681337356567
1716404002019728400,9.364728271484376,0.3164612054824829,0.3730888366699219,1.3626207113265991
1716404002029860400,9.3748603515625,0.22529900074005127,0.010034561157226562,1.4733479022979736
1716404002039992000,9.384991943359376,0.3218703269958496,-0.19385051727294922,1.4930830001831055
1716404002050124000,9.3951240234375,0.5713797807693481,-0.2671175003051758,1.3950408697128296
1716404002060255700,9.405255859375,0.7457908391952515,-0.2403087615966797,1.241436243057251
1716404002070377000,9.415376953125,0.6728756427764893,-0.13723087310791016,1.2524924278259277
1716404002080509000,9.425509033203125,0.23184633255004883,0.10355758666992188,1.5081439018249512
1716404002090640600,9.435640625,-0.3462998867034912,0.39969635009765625,1.8818312883377075
1716404002100772600,9.445772705078125,-0.957586407661438,0.6719646453857422,1.9273910522460938
1716404002110904300,9.455904296875,-1.4316177368164062,0.9681606292724609,2.36447811126709
1716404002121036300,9.466036376953125,-1.7025411128997803,1.286050796508789,2.7086384296417236
1716404002131168000,9.47616796875,-1.8582184314727783,1.4778633117675781,2.921097755432129
1716404002141300000,9.486300048828125,-2.1122841835021973,1.5752496719360352,3.0595333576202393
1716404002151431700,9.496431640625,-2.2954883575439453,1.537766456604004,3.2579469680786133
1716404002161563600,9.506563720703125,-2.0694336891174316,1.3752079010009766,3.4157772064208984
1716404002171695400,9.5166953125,-1.6834090948104858,1.0928974151611328,3.339801788330078
1716404002181827300,9.526827392578125,-1.4494340419769287,0.6294794082641602,2.296565055847168
1716404002191959000,9.536958984375,-1.4418609142303467,0.11937713623046875,1.6798205375671387
1716404002202091000,9.547091064453125,-1.4732894897460938,-0.22234344482421875,1.3317527770996094
1716404002212222700,9.55722265625,-1.4347115755081177,-0.32706165313720703,1.1420153379440308
1716404002222354700,9.567354736328125,-1.2433193922042847,-0.3770895004272461,0.9187975525856018
1716404002232486400,9.577486328125,-1.0422630310058594,-0.6233539581298828,0.4634038805961609
1716404002242618400,9.587618408203125,-0.8688123822212219,-1.184617042541504,-0.15519797801971436
1716404002252750000,9.59775,-0.8751791715621948,-1.9284648895263672,-0.16789132356643677
1716404002262882000,9.607882080078125,-1.215118408203125,-2.691843032836914,-1.3523367643356323
1716404002273013800,9.618013671875,-1.5454137325286865,-3.441173553466797,-1.7655227184295654
1716404002283145700,9.628145751953125,-1.631378412246704,-4.231266021728516,-2.0506560802459717
1716404002293277400,9.63827734375,-1.4731615781784058,-4.877925872802734,-2.2112629413604736
1716404002303409400,9.648409423828125,-1.5132572650909424,-5.0495710372924805,-1.9657577276229858
1716404002313541000,9.658541015625,-1.674543023109436,-4.771613121032715,-1.5543736219406128
1716404002323672800,9.6686728515625,-1.8837352991104126,-4.198234558105469,-1.003970742225647
1716404002333804800,9.6788046875,-1.9658787250518799,-3.6409387588500977,-0.24608027935028076
1716404002343936500,9.6889365234375,-1.8249279260635376,-3.3651046752929688,0.6161073446273804
1716404002354068500,9.699068359375,-1.2308540344238281,-3.1171436309814453,1.360735535621643
1716404002364200200,9.7092001953125,-0.519477128982544,-2.7776565551757812,1.6602131128311157
1716404002374332200,9.719332275390625,-0.19236859679222107,-2.329986572265625,1.5156480073928833
1716404002384464000,9.7294638671875,-0.3788689970970154,-1.6118230819702148,1.1831541061401367
1716404002394595800,9.739595947265625,-0.9988080263137817,-0.7456331253051758,1.0326699018478394
1716404002404727600,9.7497275390625,-1.7336301803588867,-0.3482627868652344,1.1278839111328125
1716404002414859500,9.759859619140625,-2.4603562355041504,-0.8968887329101562,1.2095013856887817
1716404002424991200,9.7699912109375,-3.2251248359680176,-1.7142486572265625,1.3380470275878906
1716404002435123200,9.780123291015625,-3.6676952838897705,-2.2518835067749023,1.5099000930786133
1716404002445255000,9.7902548828125,-3.8926644325256348,-2.34506893157959,2.175058364868164
1716404002455356400,9.8003564453125,-3.192815065383911,-2.013978958129883,2.074638843536377
1716404002465488100,9.810488037109375,-1.6248042583465576,-1.6378593444824219,3.519439697265625
1716404002475620000,9.8206201171875,-0.04577994346618652,-1.4501943588256836,4.894623756408691
1716404002485751800,9.830751708984375,1.4603779315948486,-1.7455644607543945,5.547247886657715
1716404002495883800,9.8408837890625,2.2807106971740723,-2.2844371795654297,5.729042053222656
1716404002506015500,9.851015380859375,2.7774248123168945,-2.7226057052612305,5.4853386878967285
1716404002516147200,9.861147216796875,2.6930267810821533,-3.246824264526367,3.5611391067504883
1716404002526279200,9.871279052734375,2.5091466903686523,-3.807623863220215,0.02301764488220215
1716404002536411000,9.881410888671875,2.6859347820281982,-3.917947769165039,-1.5116350650787354
1716404002546542800,9.89154296875,3.334243059158325,-3.468597412109375,-2.010864496231079
1716404002556674600,9.901674560546875,3.1020383834838867,-2.6394052505493164,-2.0847079753875732
1716404002566806500,9.911806640625,2.86350154876709,-1.4395151138305664,-2.2338058948516846
1716404002576938200,9.921938232421875,2.1254491806030273,-0.4162139892578125,-3.1142160892486572
1716404002587070200,9.9320703125,1.4187555313110352,0.1727466583251953,-3.1943881511688232
1716404002597202000,9.942201904296875,0.7585303783416748,0.5185565948486328,-4.622649192810059
1716404002607334000,9.952333984375,0.19631648063659668,0.8445196151733398,-4.650121212005615
1716404002617465600,9.962465576171875,-0.14866399765014648,0.9798688888549805,-4.0944294929504395
1716404002627597600,9.97259765625,-0.08215904235839844,0.9636249542236328,-3.1031837463378906
1716404002637729300,9.982729248046875,0.5984230041503906,0.7846860885620117,-2.209324598312378
1716404002647861200,9.992861328125,1.8243889808654785,0.6579208374023438,-1.3468029499053955
1716404002657993000,10.002992919921875,3.1789674758911133,0.6293468475341797,-0.6395118236541748
1716404002668125000,10.013125,4.534259796142578,0.6809616088867188,-0.6131026744842529
1716404002678256600,10.023256591796875,5.603423595428467,0.8582730293273926,-0.3393697738647461
1716404002688388600,10.033388671875,5.992652416229248,1.2045440673828125,-0.6398074626922607
1716404002698520300,10.043520263671875,5.925186634063721,1.566802978515625,-1.0866632461547852
1716404002708652300,10.05365234375,5.731925010681152,1.9364824295043945,-1.6060500144958496
1716404002718784000,10.063783935546875,5.4771881103515625,2.2550301551818848,-2.119170665740967
1716404002728916000,10.073916015625,5.2408366203308105,2.367755889892578,-2.674252510070801
1716404002739047700,10.084047607421875,4.863598823547363,2.291706085205078,-3.0742034912109375
1716404002749179600,10.0941796875,4.421310901641846,2.0352067947387695,-3.1265273094177246
1716404002759311400,10.104311279296875,4.00147008895874,1.597914218902588,-3.0984129905700684
1716404002769443300,10.114443359375,3.365898609161377,1.221677303314209,-3.095319986343384
1716404002779575000,10.124574951171875,2.7130327224731445,0.9908285140991211,-3.0551609992980957
1716404002789707000,10.13470703125,2.168698310852051,0.8841190338134766,-2.9409759044647217
1716404002799838700,10.144838623046875,1.696321964263916,0.8268561363220215,-2.739335298538208
1716404002809970700,10.154970703125,1.219602108001709,0.8689513206481934,-2.340083599090576
1716404002820102400,10.165102294921875,0.7683305740356445,0.8733162879943848,-2.0292975902557373
1716404002830234000,10.175234130859375,0.5134396553039551,0.9522347450256348,-1.6849620342254639
1716404002840366000,10.185365966796875,0.3852219581604004,1.0590100288391113,-1.3176913261413574
1716404002850497800,10.195497802734375,0.3667564392089844,1.3315410614013672,-0.8529312610626221
1716404002860629800,10.205629638671875,0.14979171752929688,1.4918522834777832,-0.47591280937194824
1716404002870761500,10.215761474609375,-0.3732028007507324,1.3721532821655273,-0.2050480842590332
1716404002880893400,10.2258935546875,-0.8738250732421875,1.044144630432129,-0.24768853187561035
1716404002891025200,10.236025146484375,-1.376021385192871,0.6185755729675293,0.04362654685974121
1716404002901157000,10.2461572265625,-1.119859218597412,0.2287611961364746,0.3688218593597412
1716404002911288800,10.256288818359375,0.5018835067749023,0.20717477798461914,0.5727732181549072
1716404002921420800,10.2664208984375,3.7163143157958984,0.755927562713623,-0.5171408653259277
1716404002931552500,10.276552490234375,3.8418426513671875,1.2061052322387695,-1.7423584461212158
1716404002941684500,10.2866845703125,-7.589959144592285,0.37934446334838867,-3.3036930561065674
1716404002951816200,10.296816162109375,-11.341452598571777,-2.0416316986083984,-3.256061315536499
1716404002961948200,10.3069482421875,1.38775634765625,-7.083775520324707,0.3627185821533203
1716404002972079900,10.317079833984375,5.532724857330322,-11.231914520263672,4.683923721313477
1716404002982211800,10.3272119140625,1.1928210258483887,-10.843034744262695,3.8448309898376465
1716404002992343600,10.337343505859375,0.9554767608642578,-7.176233291625977,3.0757105350494385
1716404003002475500,10.3474755859375,0.8301835060119629,-3.218778610229492,2.402400255203247
1716404003012607200,10.357607177734375,1.6059308052062988,-0.8237123489379883,1.1996850967407227
1716404003022739200,10.3677392578125,3.024740219116211,0.08745288848876953,-0.48082613945007324
1716404003032871000,10.377870849609375,3.13368558883667,0.1375102996826172,-2.2261757850646973
1716404003043003000,10.3880029296875,2.686859130859375,0.1537151336669922,-3.695530891418457
1716404003053134600,10.398134521484375,2.6478800773620605,-0.02870941162109375,-4.5085554122924805
1716404003063266600,10.4082666015625,3.1573445796966553,-0.6206378936767578,-4.756683826446533
1716404003073398300,10.418398193359375,3.5037107467651367,-1.3527650833129883,-3.9721782207489014
1716404003083530200,10.4285302734375,3.14815354347229,-2.141940116882324,-2.56646728515625
1716404003093662000,10.438661865234375,2.160813808441162,-2.7164230346679688,-1.018019437789917
1716404003103794000,10.4487939453125,1.0566575527191162,-2.959850311279297,-0.9396510124206543
1716404003113925600,10.458925537109375,0.27817845344543457,-2.7193470001220703,0.34653282165527344
1716404003124057600,10.4690576171875,0.1859884262084961,-1.865713119506836,1.1750860214233398
1716404003134189300,10.479189208984375,0.6707401275634766,-0.6039628982543945,1.768676519393921
1716404003144321300,10.4893212890625,1.1307151317596436,0.6083993911743164,1.6845669746398926
1716404003154453000,10.499452880859375,1.223848819732666,1.4786977767944336,-0.0803840160369873
1716404003164584700,10.509584716796875,1.1958236694335938,1.9365425109863281,-1.0852510929107666
1716404003174716700,10.519716552734375,1.1938977241516113,2.1815223693847656,-1.8302955627441406
1716404003184848400,10.529848388671875,1.1921247243881226,2.2351436614990234,-2.4696919918060303
1716404003194980400,10.53998046875,0.9523329734802246,2.1479082107543945,-2.9313971996307373
1716404003205112000,10.550112060546875,0.4517247676849365,2.001826286315918,-3.1081414222717285
1716404003215244000,10.560244140625,-0.18261241912841797,1.7975406646728516,-2.8678054809570312
1716404003225375700,10.570375732421875,-0.9151004552841187,1.525008201599121,-1.989988088607788
1716404003235507700,10.5805078125,-1.3538793325424194,1.1400480270385742,-1.126541018486023
1716404003245639400,10.590639404296875,-1.6347200870513916,0.6923751831054688,-0.10923981666564941
1716404003255771400,10.600771484375,-1.7760262489318848,0.22775840759277344,0.723562479019165
1716404003265903000,10.610903076171875,-1.7390658855438232,-0.014125823974609375,0.821765661239624
1716404003276035000,10.62103515625,-1.53446364402771,-0.1380634307861328,1.3604804277420044
1716404003286166800,10.631166748046875,-1.2662160396575928,-0.14587020874023438,1.6380281448364258
1716404003296298800,10.641298828125,-0.8292291760444641,0.0960092544555664,2.031074047088623
1716404003306430500,10.651430419921875,-0.3100559115409851,0.5578603744506836,2.7982990741729736
1716404003316562400,10.6615625,-0.09545177221298218,1.0621891021728516,2.894272804260254
1716404003326694100,10.671694091796875,-0.32808011770248413,1.3485298156738281,3.9739789962768555
1716404003336826000,10.681826171875,-0.8612250685691833,1.300358772277832,4.021306991577148
1716404003346957800,10.691957763671875,-1.632537841796875,1.0377635955810547,4.048013210296631
1716404003357089800,10.70208984375,-2.2499654293060303,0.6710138320922852,4.229099750518799
1716404003367221500,10.712221435546875,-2.4260151386260986,0.2696352005004883,4.409969806671143
1716404003377353500,10.722353515625,-2.1320736408233643,-0.03950309753417969,4.511296272277832
1716404003387485200,10.732485107421875,-1.7536725997924805,-0.18710899353027344,4.4515228271484375
1716404003397617200,10.7426171875,-1.6395901441574097,-0.3140239715576172,3.9338536262512207
1716404003407748900,10.752748779296875,-1.5483384132385254,-0.3314533233642578,2.964890241622925
1716404003417850000,10.76285009765625,-1.3113259077072144,-0.39467716217041016,1.4646117687225342
1716404003427982000,10.772982177734375,-1.0936031341552734,-0.5486726760864258,0.7694038152694702
1716404003438113800,10.78311376953125,-0.792566180229187,-0.6067819595336914,0.3583730459213257
1716404003448245800,10.793245849609375,-0.6380970478057861,-0.7221612930297852,-0.03490513563156128
1716404003458377500,10.80337744140625,-0.8744379281997681,-1.006831169128418,-0.5887832641601562
1716404003468509400,10.813509521484375,-1.184255838394165,-1.5007991790771484,-1.1905040740966797
1716404003478641200,10.82364111328125,-1.3864052295684814,-2.1864938735961914,-1.6669355630874634
1716404003488773000,10.833773193359375,-1.396664023399353,-2.9606332778930664,-1.8831202983856201
1716404003498904800,10.84390478515625,-1.2281532287597656,-3.6582536697387695,-1.915926218032837
1716404003509036800,10.854036865234375,-0.9634212851524353,-4.098228454589844,-1.923132061958313
1716404003519168500,10.86416845703125,-0.7252991199493408,-4.365035057067871,-2.1125452518463135
1716404003529300500,10.874300537109375,-0.6805846095085144,-4.549843788146973,-2.284689426422119
1716404003539432200,10.88443212890625,-0.883985161781311,-4.777037620544434,-1.9317872524261475
1716404003549564200,10.894564208984375,-1.5098600387573242,-4.80057430267334,-0.7834653258323669
1716404003559696000,10.90469580078125,-2.108574151992798,-4.41119384765625,0.9098552465438843
1716404003569827800,10.914827880859375,-2.1262903213500977,-3.6274890899658203,0.9696148037910461
1716404003579959600,10.92495947265625,-1.6426724195480347,-2.7714881896972656,2.5532851219177246
1716404003590091500,10.935091552734375,-0.44798725843429565,-2.0204763412475586,3.732698917388916
1716404003600223200,10.94522314453125,0.6684107780456543,-1.571737289428711,4.332280158996582
1716404003610355200,10.955355224609375,0.22784942388534546,-1.184342384338379,1.311226725578308
1716404003620487000,10.96548681640625,-0.9138772487640381,-0.6681556701660156,-0.2195492684841156
1716404003630619000,10.975618896484375,-1.8964548110961914,-0.4058542251586914,-0.8125601410865784
1716404003640750600,10.98575048828125,-2.9443535804748535,-0.5485239028930664,-0.7477657794952393
1716404003650882600,10.995882568359375,-3.9821341037750244,-0.6577844619750977,0.13102495670318604
1716404003661014300,11.00601416015625,-4.595983505249023,-0.5597629547119141,1.185945749282837
1716404003671146000,11.01614599609375,-4.700202941894531,-0.10480976104736328,1.0456011295318604
1716404003681278000,11.02627783203125,-4.066671371459961,0.5967025756835938,1.8747495412826538
1716404003691409700,11.03640966796875,-2.5008387565612793,0.8985071182250977,2.620375156402588
1716404003701541600,11.046541748046875,-0.140342116355896,0.9985198974609375,2.864121913909912
1716404003711673300,11.05667333984375,1.998608112335205,0.7944564819335938,2.8677568435668945
1716404003721805300,11.066805419921875,3.2996106147766113,0.09584522247314453,2.876573085784912
1716404003731937000,11.07693701171875,3.437429428100586,-0.9148664474487305,2.3242878913879395
1716404003742069000,11.087069091796875,3.2097747325897217,-1.772115707397461,0.3925459384918213
1716404003752200700,11.09720068359375,2.937931537628174,-2.0179643630981445,-0.25725817680358887
1716404003762332700,11.107332763671875,2.6457743644714355,-1.80242919921875,-1.0699617862701416
1716404003772464400,11.11746435546875,2.7052838802337646,-1.6465234756469727,-1.9632031917572021
1716404003782596400,11.127596435546875,2.183926582336426,-1.6711483001708984,-2.603377342224121
1716404003792728000,11.13772802734375,0.8545472621917725,-1.8731193542480469,-3.3433141708374023
1716404003802860000,11.147860107421875,-1.4264483451843262,-2.0434799194335938,-4.507460594177246
1716404003812991700,11.15799169921875,-3.483288288116455,-2.325192451477051,-6.7187604904174805
1716404003823123700,11.168123779296875,-2.7997384071350098,-2.2055912017822266,-8.804983139038086
1716404003833255400,11.17825537109375,-0.4254770278930664,-1.0840530395507812,-8.455986022949219
1716404003843387400,11.188387451171875,1.4855051040649414,0.13684940338134766,-6.320633411407471
1716404003853519000,11.19851904296875,2.224379062652588,0.6763181686401367,-3.3744897842407227
1716404003863651000,11.208651123046875,2.2418479919433594,0.4526805877685547,-0.3762962818145752
1716404003873782800,11.21878271484375,1.8778777122497559,-0.17689132690429688,-0.3972923755645752
1716404003883914800,11.228914794921875,1.6727795600891113,-0.7808618545532227,1.8242099285125732
1716404003894046500,11.23904638671875,1.7470974922180176,-1.0881242752075195,2.9287235736846924
1716404003904178400,11.249178466796875,1.9649767875671387,-1.0118427276611328,2.9226794242858887
1716404003914310100,11.25931005859375,2.4367265701293945,-0.5908594131469727,2.040501356124878
1716404003924442000,11.269442138671875,2.898620128631592,-0.04071617126464844,0.8692896366119385
1716404003934573800,11.27957373046875,3.1771068572998047,0.4229164123535156,-1.2707889080047607
1716404003944705800,11.289705810546875,3.3212904930114746,0.7733187675476074,-2.2981104850769043
1716404003954837500,11.29983740234375,3.295619487762451,1.1081280708312988,-2.863694906234741
1716404003964969500,11.309969482421875,3.4708237648010254,1.5179991722106934,-3.0134177207946777
1716404003975101200,11.32010107421875,3.625980854034424,2.0163726806640625,-2.801337718963623
1716404003985233000,11.33023291015625,3.744096279144287,2.269361972808838,-2.6557493209838867
1716404003995364900,11.34036474609375,3.6282148361206055,2.3926310539245605,-2.397258758544922
1716404004005496600,11.35049658203125,3.2918128967285156,2.413351058959961,-2.0558156967163086
1716404004015628500,11.360628662109375,3.0092740058898926,2.4519920349121094,-1.7360124588012695
1716404004025760300,11.37076025390625,2.627948760986328,2.4784140586853027,-1.400754690170288
1716404004035892200,11.380892333984375,2.1146793365478516,2.5232505798339844,-0.9568033218383789
1716404004046024000,11.39102392578125,1.6920075416564941,2.6095309257507324,-0.3995335102081299
1716404004056156000,11.401156005859375,1.3712854385375977,2.6822948455810547,-0.389176607131958
1716404004066287600,11.41128759765625,0.7830290794372559,2.6624860763549805,0.07826876640319824
1716404004076419600,11.421419677734375,0.20585966110229492,2.6036534309387207,0.46661853790283203
1716404004086551300,11.43155126953125,-0.10083150863647461,2.5728096961975098,0.6754131317138672
1716404004096683300,11.441683349609375,-0.0859990119934082,2.413142681121826,0.8383808135986328
1716404004106815000,11.45181494140625,0.11836767196655273,2.27838134765625,0.9364454746246338
1716404004116947000,11.461947021484375,0.9944238662719727,2.184868335723877,1.3809306621551514
1716404004127078700,11.47207861328125,0.9847607612609863,2.2621021270751953,1.976741075515747
1716404004137210600,11.482210693359375,-2.1071271896362305,1.9242925643920898,2.6883022785186768
1716404004147342300,11.49234228515625,-2.5723137855529785,0.3400154113769531,3.085930824279785
1716404004157474300,11.502474365234375,1.78594970703125,-2.348275661468506,3.266523599624634
1716404004167606000,11.51260595703125,1.1883091926574707,-5.987297534942627,2.479362726211548
1716404004177738000,11.522738037109375,-3.830751895904541,-9.422002792358398,-2.5301053524017334
1716404004187869700,11.53286962890625,-5.6136088371276855,-9.862918853759766,-1.835808515548706
1716404004198001700,11.543001708984375,-2.768378734588623,-6.773891448974609,-1.806673526763916
1716404004208133400,11.55313330078125,0.645939826965332,-3.100693702697754,-0.6524455547332764
1716404004218265300,11.563265380859375,2.6453871726989746,-0.8969268798828125,-1.3557817935943604
1716404004228397000,11.57339697265625,3.2544021606445312,-0.3038034439086914,-2.7305049896240234
1716404004238529000,11.583529052734375,3.1652398109436035,-0.7364883422851562,-3.819705009460449
1716404004248660700,11.59366064453125,2.860724925994873,-1.2992839813232422,-4.081299304962158
1716404004258792700,11.603792724609375,2.4304466247558594,-2.0403566360473633,-4.013706684112549
1716404004268924400,11.61392431640625,1.9029865264892578,-2.8024587631225586,-3.7606918811798096
1716404004279056400,11.624056396484375,1.5334370136260986,-3.4235639572143555,-3.4425907135009766
1716404004289188000,11.63418798828125,1.6218047142028809,-3.46309757232666,-2.734666585922241
1716404004299319800,11.64431982421875,1.9741814136505127,-2.8420047760009766,-1.8913688659667969
1716404004309451800,11.65445166015625,2.1619012355804443,-1.798654556274414,-1.287017583847046
1716404004319583500,11.66458349609375,2.0881526470184326,-0.5677003860473633,-0.7581710815429688
1716404004329715500,11.674715576171875,1.764575719833374,0.3934307098388672,-0.5064175128936768
1716404004339847200,11.68484716796875,1.1933646202087402,0.8735980987548828,-0.4409472942352295
1716404004349979100,11.694979248046875,0.7618372440338135,0.8087873458862305,-0.4081563949584961
1716404004360110800,11.70511083984375,0.724442720413208,0.4172954559326172,-0.32626843452453613
1716404004370242800,11.715242919921875,0.8405296802520752,0.06040000915527344,-0.3230571746826172
1716404004380374500,11.72537451171875,0.7565617561340332,-0.1256093978881836,-0.36130690574645996
1716404004390506500,11.735506591796875,0.6730756759643555,0.011267662048339844,-0.4739980697631836
1716404004400638200,11.74563818359375,0.9388327598571777,0.3241138458251953,-0.7628500461578369
1716404004410739700,11.75573974609375,1.1395493745803833,0.6502342224121094,-1.2670707702636719
1716404004420871400,11.765871337890625,0.7942155599594116,0.8780651092529297,-1.7501394748687744
1716404004431003400,11.77600341796875,0.0342785120010376,1.0149478912353516,-2.1028976440429688
1716404004441135000,11.786135009765625,-0.7791310548782349,1.0900335311889648,-2.117887496948242
1716404004451267000,11.79626708984375,-1.588156819343567,1.0295696258544922,-1.9053258895874023
1716404004461398800,11.806398681640625,-1.958727478981018,0.9936904907226562,-1.3887195587158203
1716404004471530800,11.81653076171875,-1.9252769947052002,1.032205581665039,-0.4491422176361084
1716404004481662500,11.826662353515625,-1.7538156509399414,1.0108251571655273,0.6331628561019897
1716404004491794200,11.836794189453125,-1.4160082340240479,0.9938373565673828,0.7605164051055908
1716404004501926100,11.846926025390625,-1.1526296138763428,1.121903419494629,1.7139668464660645
1716404004512057900,11.857057861328125,-0.7803250551223755,1.3109674453735352,2.468944549560547
1716404004522189800,11.86718994140625,-0.3473760485649109,1.324305534362793,3.068284273147583
1716404004532321500,11.877321533203125,-0.04168802499771118,1.1103973388671875,3.3852739334106445
1716404004542453500,11.88745361328125,-0.0398101806640625,0.8231544494628906,3.199626922607422
1716404004552585200,11.897585205078125,-0.3258829116821289,0.5822963714599609,2.8387632369995117
1716404004562717200,11.90771728515625,-0.4844185709953308,0.3973836898803711,2.440154790878296
1716404004572849000,11.917848876953125,-0.6268749833106995,0.23744678497314453,2.1712164878845215
1716404004582980900,11.92798095703125,-0.7892093062400818,0.13851261138916016,1.4570107460021973
1716404004593112600,11.938112548828125,-0.9897475838661194,0.17001056671142578,1.1482597589492798
1716404004603244500,11.94824462890625,-1.2225797176361084,0.2219400405883789,0.8145183324813843
1716404004613376300,11.958376220703125,-1.4155657291412354,0.19886016845703125,0.38581573963165283
1716404004623508200,11.96850830078125,-1.459470510482788,0.03906822204589844,-0.18636465072631836
1716404004633640000,11.978639892578125,-1.602245807647705,-0.1538858413696289,-0.723730206489563
1716404004643772000,11.98877197265625,-1.812788486480713,-0.10729694366455078,-0.8080642223358154
1716404004653903600,11.998903564453125,-2.1696548461914062,0.03970623016357422,-0.5498788356781006
1716404004664035600,12.00903564453125,-2.4738121032714844,0.1624469757080078,0.10732632875442505
1716404004674167300,12.019167236328125,-2.6513588428497314,0.2581806182861328,0.7420450448989868
1716404004684299300,12.02929931640625,-2.859860420227051,0.33392810821533203,1.2837059497833252
1716404004694431000,12.039430908203125,-2.9510316848754883,0.18432140350341797,1.6475605964660645
1716404004704563000,12.04956298828125,-2.8553175926208496,-0.3500089645385742,1.9083224534988403
1716404004714694700,12.059694580078125,-2.558980703353882,-0.8047580718994141,1.9419339895248413
1716404004724826600,12.06982666015625,-2.0068814754486084,-0.944000244140625,2.5719566345214844
1716404004734958300,12.079958251953125,-1.252266764640808,-1.0336246490478516,3.065929889678955
1716404004745090300,12.09009033203125,-0.5403397083282471,-0.8944578170776367,3.0861644744873047
1716404004755222000,12.100221923828125,-0.10358061641454697,-0.5008745193481445,3.1631288528442383
1716404004765354000,12.11035400390625,0.09415734559297562,-0.20003795623779297,3.2335128784179688
1716404004775485700,12.120485595703125,0.21884912252426147,-0.2662811279296875,1.8335070610046387
1716404004785617700,12.13061767578125,0.2038114070892334,-0.41869068145751953,0.5898458957672119
1716404004795749400,12.140749267578125,-0.06568345427513123,-0.34818363189697266,-0.1204754114151001
1716404004805881000,12.150881103515625,-0.5824242830276489,-0.18136024475097656,-0.13580787181854248
1716404004816013000,12.161012939453125,-0.9138244390487671,-0.2743043899536133,0.29046905040740967
1716404004826144800,12.171144775390625,-0.867017924785614,-0.7126445770263672,0.7190425992012024
1716404004836276700,12.18127685546875,-0.5281012058258057,-1.1803102493286133,1.1828007698059082
1716404004846408400,12.191408447265625,-0.116986945271492,-1.3763542175292969,1.7801556587219238
1716404004856540400,12.20154052734375,0.4007466435432434,-1.6241521835327148,1.8003435134887695
1716404004866672000,12.211672119140625,1.1363410949707031,-2.136641502380371,2.4421849250793457
1716404004876804000,12.22180419921875,1.964704155921936,-2.7750253677368164,2.7202022075653076
1716404004886935800,12.231935791015625,2.538010835647583,-3.395853042602539,1.8963563442230225
1716404004897067800,12.24206787109375,2.470039129257202,-3.76273250579834,0.5454962849617004
1716404004907199500,12.252199462890625,1.4182757139205933,-3.5559539794921875,-1.0262978076934814
1716404004917331500,12.26233154296875,-0.16721493005752563,-2.8603572845458984,-2.143965005874634
1716404004927463200,12.272463134765625,-1.525499701499939,-2.049675941467285,-2.710935354232788
1716404004937595100,12.28259521484375,-2.64984393119812,-1.5326414108276367,-2.9627230167388916
1716404004947726800,12.292726806640625,-3.425731658935547,-1.3112001419067383,-2.9850800037384033
1716404004957858800,12.30285888671875,-3.863074541091919,-1.2466068267822266,-2.786538600921631
1716404004967990500,12.312990478515625,-4.389194011688232,-1.4084596633911133,-2.4657156467437744
1716404004978122500,12.32312255859375,-5.133760929107666,-1.9307212829589844,-1.9080920219421387
1716404004988254200,12.333254150390625,-5.622304439544678,-2.660928726196289,-0.8145214915275574
1716404004998386200,12.34338623046875,-5.53120231628418,-3.3353633880615234,0.443589985370636
1716404005008518000,12.353517822265625,-5.113650798797607,-3.5071849822998047,1.5813506841659546
1716404005018649900,12.36364990234375,-4.471133232116699,-3.156015396118164,1.4757115840911865
1716404005028781600,12.373781494140625,-3.2214460372924805,-2.2871503829956055,2.1812644004821777
1716404005038913500,12.38391357421875,-1.587854027748108,-0.9982414245605469,2.275142192840576
1716404005049045200,12.394045166015625,-0.0872948169708252,-0.215545654296875,2.5579347610473633
1716404005059177200,12.40417724609375,1.0840117931365967,-0.1781940460205078,2.5643184185028076
1716404005069309000,12.414308837890625,2.440394401550293,-0.5553226470947266,2.0968427658081055
1716404005079441000,12.42444091796875,3.695561170578003,-1.2081022262573242,1.5554449558258057
1716404005089572600,12.434572509765625,4.4767866134643555,-1.8746757507324219,1.001744031906128
1716404005099704600,12.44470458984375,4.674933433532715,-2.2525768280029297,0.8005335330963135
1716404005109836300,12.454836181640625,4.463561058044434,-2.358306884765625,1.020254373550415
1716404005119968000,12.464968017578125,3.889611005783081,-2.224100112915039,1.320683479309082
1716404005130100000,12.475099853515625,3.3106441497802734,-2.239530563354492,1.5131280422210693
1716404005140231700,12.485231689453125,2.6087000370025635,-2.4971561431884766,1.5759656429290771
1716404005150363600,12.49536376953125,1.188014030456543,-2.9316444396972656,1.2796587944030762
1716404005160495400,12.505495361328125,-1.919926404953003,-3.2975730895996094,-2.0852909088134766
1716404005170627300,12.51562744140625,-5.290665626525879,-3.1062984466552734,-5.528285026550293
1716404005180759000,12.525759033203125,-6.24206018447876,-2.5098390579223633,-8.18837833404541
1716404005190891000,12.53589111328125,-4.0921525955200195,-1.5870285034179688,-8.455872535705566
1716404005201022700,12.546022705078125,-0.41611719131469727,-0.5493812561035156,-7.157209873199463
1716404005211154700,12.55615478515625,2.728024482727051,0.37033843994140625,-5.1512675285339355
1716404005221286400,12.566286376953125,4.659587383270264,0.9056820869445801,-2.9552841186523438
1716404005231418400,12.57641845703125,5.185227394104004,1.013843059539795,-1.054304838180542
1716404005241550000,12.586550048828125,4.599548816680908,0.7705750465393066,-1.054896354675293
1716404005251682000,12.59668212890625,3.66400146484375,0.5333161354064941,0.3564748764038086
1716404005261813800,12.606813720703125,2.9078545570373535,0.35911130905151367,1.2470357418060303
1716404005271945700,12.61694580078125,2.4368014335632324,0.31011390686035156,1.2766480445861816
1716404005282077400,12.627077392578125,2.2366347312927246,0.34427309036254883,0.7231569290161133
1716404005292209400,12.63720947265625,2.4738645553588867,0.4782419204711914,-1.172616720199585
1716404005302341000,12.647341064453125,2.928062915802002,0.7070035934448242,-2.094257116317749
1716404005312473000,12.65747314453125,3.324115753173828,0.9324488639831543,-3.0050435066223145
1716404005322604800,12.667604736328125,3.488504409790039,1.3275156021118164,-3.2854983806610107
1716404005332736800,12.67773681640625,3.596991539001465,1.847729206085205,-2.925797700881958
1716404005342868500,12.687868408203125,3.7393345832824707,2.3099584579467773,-2.2556517124176025
1716404005353000400,12.69800048828125,3.901585578918457,2.690864086151123,-1.5817296504974365
1716404005363132200,12.708132080078125,4.035857677459717,3.062959671020508,-1.154118537902832
1716404005373264100,12.71826416015625,3.991549015045166,3.285823345184326,-0.9672822952270508
1716404005383395800,12.728395751953125,3.6438746452331543,3.310925006866455,-0.8879954814910889
1716404005393527800,12.73852783203125,3.076540470123291,3.1301045417785645,-0.8583052158355713
1716404005403659500,12.748659423828125,2.630093574523926,2.8898239135742188,-0.8463587760925293
1716404005413791500,12.75879150390625,2.37969970703125,2.6929378509521484,-0.8437168598175049
1716404005423923200,12.768923095703125,2.176840305328369,2.5240235328674316,-0.8307192325592041
1716404005434024400,12.7790244140625,1.9082727432250977,2.3471317291259766,-0.8620054721832275
1716404005444156400,12.789156494140625,1.5009441375732422,2.125699520111084,-0.9897501468658447
1716404005454288100,12.7992880859375,0.7787680625915527,1.9005427360534668,-1.2271597385406494
1716404005464420000,12.809420166015625,0.1667037010192871,1.7629289627075195,-1.3320307731628418
1716404005474551800,12.8195517578125,-0.2080240249633789,1.5896596908569336,-1.3727974891662598
1716404005484683800,12.829683837890625,-0.31612730026245117,1.4625329971313477,-1.2776517868041992
1716404005494815500,12.8398154296875,-0.3473634719848633,1.2555456161499023,-1.2016205787658691
1716404005504947500,12.849947509765625,-0.4383125305175781,1.0351409912109375,-1.1260604858398438
1716404005515079200,12.8600791015625,-0.6578812599182129,0.8879299163818359,-1.110964298248291
1716404005525211100,12.870211181640625,-1.737752914428711,0.810600757598877,-0.9510068893432617
1716404005535342800,12.8803427734375,-4.155329704284668,0.5920124053955078,-0.6374270915985107
1716404005545474800,12.890474853515625,-7.9083638191223145,0.16571569442749023,0.4601447582244873
1716404005555606500,12.9006064453125,-9.26460075378418,-0.8769922256469727,2.9996018409729004
1716404005565738500,12.910738525390625,-7.006130695343018,-2.866886615753174,5.412394046783447
1716404005575870200,12.9208701171875,-5.950809955596924,-4.747941017150879,5.297796249389648
1716404005586002200,12.931002197265625,1.8242626190185547,-6.058483123779297,3.9442386627197266
1716404005596134000,12.9411337890625,7.257665157318115,-5.7892985343933105,4.262741565704346
1716404005606265900,12.951265869140625,3.3941569328308105,-4.025436878204346,2.5476431846618652
1716404005616397600,12.9613974609375,-2.7576751708984375,-1.7449541091918945,-2.665708541870117
1716404005626529300,12.971529296875,-4.121184825897217,-1.034627914428711,-2.842848777770996
1716404005636661200,12.9816611328125,-0.6510434150695801,-0.9486837387084961,-2.0730295181274414
1716404005646793000,12.99179296875,2.9679417610168457,-0.6175289154052734,-1.4733166694641113
1716404005656925000,13.001925048828125,3.8246469497680664,-0.5118937492370605,-1.873241901397705
1716404005667056600,13.012056640625,2.669854164123535,-0.5234842300415039,-2.333840847015381
1716404005677188600,13.022188720703125,1.5903496742248535,-0.9940342903137207,-2.4298558235168457
